aX,aY,aZ,gX,gY,gZ
-0.175,-0.127,0.982,17.334,21.912,-3.235
-0.146,-0.146,0.976,8.545,10.376,-2.991
-0.087,-0.152,0.963,0.122,-0.732,-1.160
-0.073,-0.123,0.971,-11.963,-13.184,0.122
-0.100,-0.113,0.956,-23.926,-23.865,2.930
-0.118,-0.088,0.980,-32.776,-27.954,5.188
-0.112,-0.097,0.981,-41.687,-27.771,5.920
-0.184,-0.070,0.915,-52.368,-29.419,6.775
-0.174,-0.016,0.731,-56.458,-30.334,3.174
0.128,-0.087,0.577,-44.556,-27.344,3.174
-0.278,0.156,0.573,-38.574,-39.368,13.611
-0.341,0.012,0.664,-16.846,-25.208,9.338
-0.236,-0.036,0.678,-2.197,2.197,-0.122
-0.194,-0.071,0.657,2.258,8.850,-3.052
-0.144,-0.068,0.633,-3.662,5.127,-4.883
-0.088,-0.057,0.656,-14.709,-5.066,-6.714
-0.025,0.007,0.650,-28.748,-11.108,-6.714
-0.036,0.045,0.612,-38.025,-9.399,-5.920
-0.024,0.049,0.555,-38.208,-1.709,-5.798
-0.008,0.022,0.521,-33.691,7.996,-6.042
-0.021,-0.020,0.492,-29.541,15.320,-5.859
-0.042,-0.002,0.423,-27.771,21.790,-5.981
-0.083,0.050,0.355,-23.682,30.884,-8.728
-0.096,0.070,0.202,-15.686,40.100,-13.062
-0.066,0.072,0.070,-8.606,34.851,-16.174
-0.113,0.107,0.004,-3.845,13.306,-17.273
-0.098,0.087,0.025,3.113,-7.629,-16.663
-0.034,0.089,0.151,8.484,-22.339,-16.113
-0.033,0.082,0.262,14.526,-32.654,-14.099
-0.078,0.045,0.463,26.062,-36.743,-10.803
-0.150,-0.043,0.706,36.743,-34.363,-8.789
-0.190,-0.077,0.862,32.715,-29.480,-10.010
-0.126,-0.091,0.928,15.442,-18.555,-12.512
-0.157,0.039,0.899,-2.075,0.366,-13.794
-0.129,0.061,0.771,-10.864,24.231,-16.296
-0.086,0.077,0.624,-16.296,41.443,-19.104
-0.135,0.070,0.516,-18.555,43.945,-20.020
-0.144,0.065,0.402,-13.428,38.635,-21.057
-0.074,0.082,0.379,3.357,27.283,-20.813
-0.065,0.045,0.536,30.823,8.972,-16.296
0.058,-0.001,0.862,59.570,-5.676,-11.841
-0.231,-0.118,1.105,75.012,-19.897,-6.104
-0.191,-0.074,1.379,74.524,-7.935,-7.202
-0.248,-0.126,1.462,63.416,14.526,-14.343
-0.118,-0.029,1.150,30.029,28.259,-25.269
0.029,0.096,0.750,3.357,42.297,-31.982
0.006,0.088,0.637,6.287,47.363,-29.541
-0.012,0.012,0.668,27.588,47.058,-25.818
-0.019,-0.064,0.842,52.063,39.429,-23.254
-0.012,-0.127,1.094,74.463,27.222,-16.113
-0.040,-0.206,1.409,85.266,13.489,-10.864
-0.054,-0.299,1.745,79.956,8.606,-6.104
-0.199,-0.350,1.902,58.777,16.174,-1.404
-0.349,-0.324,1.886,32.593,25.818,-0.366
-0.353,-0.259,1.771,17.029,33.081,-2.808
-0.355,-0.241,1.574,12.512,29.358,-3.784
-0.193,-0.200,1.485,14.404,31.860,-6.958
-0.023,-0.256,1.410,21.118,51.208,-16.174
0.111,-0.223,1.352,8.850,57.129,-12.085
0.069,-0.156,1.208,-7.324,60.730,-10.315
0.073,-0.160,1.191,-13.306,62.439,-10.254
-0.004,-0.122,1.284,-13.489,53.772,-7.446
-0.092,-0.098,1.506,-7.690,39.368,-6.714
-0.272,-0.187,1.611,6.104,17.456,-2.380
-0.302,-0.212,1.595,18.188,-1.160,-3.235
-0.205,-0.209,1.492,24.841,-14.893,-7.080
-0.090,-0.210,1.296,23.437,-24.963,-8.728
0.025,-0.168,1.090,14.160,-22.644,-10.010
0.104,-0.140,0.995,3.296,-8.972,-9.155
0.008,-0.160,1.000,-5.859,3.235,-4.883
-0.138,-0.182,1.064,-13.062,16.663,-4.578
-0.246,-0.242,1.076,-17.090,28.992,-6.592
-0.233,-0.205,1.107,-18.433,27.649,-7.568
-0.152,-0.131,1.086,-15.381,15.747,-7.629
-0.069,-0.076,1.092,-3.723,4.639,-6.714
-0.015,-0.044,1.182,11.597,-3.113,-3.784
-0.096,-0.104,1.460,23.193,-11.230,1.099
-0.586,-0.736,2.870,15.808,-8.057,6.287
-0.038,-0.259,2.553,-78.491,37.415,1.404
-0.202,0.476,1.177,-160.645,27.466,-16.418
-0.242,0.301,0.932,-101.135,22.278,-26.428
0.169,0.010,1.091,-28.748,46.631,-31.433
0.183,0.038,1.022,-13.550,36.072,-28.137
0.067,0.050,0.906,-9.033,18.188,-16.296
0.036,-0.107,0.898,4.028,12.817,-6.226
0.037,-0.128,0.890,1.526,8.179,-2.441
0.008,-0.152,0.879,-12.634,1.465,0.549
-0.015,-0.171,0.873,-31.677,1.709,1.038
0.199,-0.001,1.201,-48.828,0.305,-1.892
-0.003,0.080,1.074,-52.185,-20.508,-0.916
-0.006,0.102,0.981,-41.321,-23.193,-2.014
0.056,0.061,1.044,-26.611,-18.860,-1.526
0.016,0.099,1.038,-23.071,-27.771,3.845
-0.060,0.096,0.994,-21.240,-32.288,8.057
-0.071,0.110,1.007,-14.954,-23.254,6.775
-0.099,0.099,0.997,-7.690,-10.315,3.784
-0.159,0.019,0.950,-1.892,0.610,1.465
-0.114,-0.016,0.944,-2.441,2.686,-1.038
-0.015,0.036,0.946,-7.751,-3.418,-2.563
0.036,0.057,0.946,-11.169,-7.324,-3.052
0.064,0.073,0.960,-11.841,-7.874,-2.319
0.048,0.109,1.001,-11.963,-6.348,-1.648
-0.007,0.119,1.002,-8.301,-5.066,-0.671
-0.035,0.110,0.953,-2.136,0.122,-0.427
-0.047,0.076,0.989,2.808,8.362,-1.099
-0.073,0.042,1.005,4.761,10.620,-0.122
-0.097,0.027,0.970,4.700,9.705,1.221
-0.068,0.009,0.978,5.066,8.301,1.709
-0.058,0.039,1.007,4.517,4.333,2.930
-0.032,0.048,0.987,6.042,2.136,3.235
-0.017,0.031,0.970,8.911,1.831,3.601
-0.020,0.018,0.971,7.629,0.000,4.517
-0.016,0.007,0.969,5.005,-2.808,5.859
-0.005,0.017,0.966,2.686,-5.249,5.798
0.001,0.026,0.965,0.732,-6.104,4.333
0.000,0.046,0.993,-1.221,-6.714,3.845
0.000,0.050,0.980,-2.441,-6.592,3.967
0.025,0.054,0.967,-2.380,-6.226,3.357
0.019,0.047,0.959,-2.014,-6.958,4.333

-0.285,-0.095,1.130,-10.498,-6.836,-3.418
-0.279,-0.052,1.117,-24.719,-6.592,-5.310
-0.234,-0.031,1.046,-33.691,-7.812,-6.104
-0.177,-0.022,0.986,-37.354,-11.169,-4.761
-0.190,0.022,0.880,-40.955,-16.357,-2.014
-0.186,-0.115,1.067,-34.607,-19.653,0.305
-0.209,0.057,0.824,-45.288,-21.362,1.709
-0.223,0.187,0.632,-39.673,-21.057,0.732
-0.275,0.009,0.829,-18.555,-16.724,2.991
-0.295,0.043,0.799,-18.066,-13.123,3.357
-0.294,0.099,0.703,-22.705,-9.888,1.526
-0.274,0.081,0.721,-15.991,-3.662,1.160
-0.264,0.051,0.695,-15.564,-0.366,0.977
-0.324,0.039,0.634,-19.897,1.038,1.892
-0.303,0.052,0.567,-25.940,5.737,0.427
-0.267,0.096,0.446,-32.959,7.080,-0.793
-0.259,0.087,0.357,-36.316,2.441,-0.610
-0.250,0.093,0.307,-35.767,-1.648,-0.061
-0.206,0.134,0.274,-34.058,-3.235,-0.916
-0.175,0.149,0.288,-29.846,-3.967,-0.671
-0.159,0.155,0.270,-27.832,-2.869,-0.061
-0.152,0.170,0.232,-29.236,-0.305,-0.061
-0.181,0.199,0.252,-30.579,-0.427,-0.549
-0.175,0.202,0.293,-29.907,-2.258,-1.831
-0.125,0.205,0.321,-28.809,-4.883,-3.662
-0.072,0.174,0.404,-27.588,-10.132,-4.150
-0.092,0.143,0.496,-29.907,-10.498,-3.357
-0.095,0.135,0.477,-37.476,-2.380,-4.761
-0.073,0.170,0.446,-39.978,4.272,-9.216
-0.042,0.180,0.383,-34.119,5.371,-13.855
-0.035,0.162,0.323,-26.733,0.916,-17.212
-0.084,0.186,0.287,-19.836,-6.226,-19.653
-0.132,0.187,0.235,-9.705,-14.832,-19.165
-0.142,0.136,0.234,3.418,-19.409,-17.700
-0.211,0.153,0.213,10.559,-19.226,-17.151
-0.244,0.123,0.158,15.015,-19.409,-16.663
-0.253,0.130,0.227,24.780,-22.644,-15.808
-0.280,0.116,0.414,38.513,-26.367,-14.587
-0.252,0.083,0.614,48.706,-24.231,-16.235
-0.191,0.037,0.732,49.072,-16.174,-20.386
-0.144,0.036,0.764,40.100,-10.193,-21.240
-0.140,0.101,0.799,29.419,-5.432,-19.592
-0.160,0.127,0.750,23.254,2.563,-17.212
-0.129,0.111,0.627,19.592,13.123,-15.381
-0.143,0.125,0.576,17.822,19.714,-13.123
-0.074,0.120,0.570,17.822,22.583,-11.841
0.012,0.137,0.622,16.968,20.874,-8.606
0.002,0.209,0.721,19.043,14.587,-3.296
0.013,0.233,0.801,28.076,13.428,0.793
-0.012,0.217,0.772,41.199,18.616,3.296
-0.119,0.163,0.715,56.091,28.137,5.066
-0.098,0.149,0.603,69.153,42.114,3.784
-0.069,0.180,0.623,85.022,49.744,4.761
-0.196,0.106,0.827,106.995,48.706,11.719
-0.289,0.038,0.923,123.779,47.363,12.512
-0.286,-0.083,1.167,135.010,30.823,10.864
-0.334,-0.189,1.374,124.268,5.127,16.602
-0.209,-0.240,1.357,89.478,3.845,9.216
-0.216,-0.033,1.085,42.358,0.854,7.996
-0.434,-0.052,0.861,26.184,24.475,6.348
-0.214,-0.074,0.902,40.283,68.054,3.174
-0.211,-0.156,1.109,63.721,98.938,-0.610
-0.346,-0.241,1.368,72.205,93.933,0.793
-0.387,-0.277,1.450,68.359,75.928,0.854
-0.312,-0.275,1.504,63.171,59.509,-3.540
-0.291,-0.325,1.500,61.523,53.955,-7.996
-0.168,-0.335,1.542,58.960,54.260,-11.108
-0.611,-0.350,1.615,56.763,33.630,-7.935
-0.528,-0.502,1.811,59.326,33.325,-15.076
-0.343,-0.512,1.989,56.396,36.743,-24.536
-0.435,-0.477,1.946,42.053,32.776,-24.536
-0.386,-0.454,1.929,33.020,47.791,-30.457
-0.308,-0.394,1.890,25.330,66.589,-35.767
-0.368,-0.423,1.786,14.771,77.698,-38.635
-0.327,-0.430,1.570,-1.282,85.815,-43.701
-0.332,-0.400,1.295,-15.259,77.332,-49.072
-0.092,-0.351,1.087,-15.198,55.420,-55.725
0.166,-0.251,0.968,-1.343,30.701,-50.110
0.201,-0.230,0.924,14.893,4.028,-35.706
0.254,-0.227,0.999,31.311,-11.230,-22.034
-0.023,-0.336,1.085,49.744,-25.879,-8.301
-0.236,-0.419,1.080,59.021,-35.706,-1.709
-0.306,-0.439,1.082,63.782,-44.067,-4.089
-0.249,-0.460,1.143,66.040,-41.138,-10.254
0.822,-0.825,4.000,-54.749,11.475,-11.047
-1.080,0.657,2.363,-326.050,-111.694,-33.508
-0.548,0.333,0.205,-99.609,-139.404,-34.851
0.652,-0.250,1.351,30.762,35.095,-80.200
-0.238,0.106,0.853,-8.484,7.568,-41.138
-0.017,-0.030,0.985,-12.695,-1.160,-36.194
-0.023,-0.190,0.948,3.113,16.724,-31.738
-0.066,-0.224,0.876,-15.259,2.258,-21.240
-0.046,-0.227,0.959,-32.104,-3.845,-11.841
-0.143,-0.176,1.000,-43.518,-6.165,-5.371
-0.163,-0.075,0.995,-38.025,-0.061,-0.122
-0.158,-0.145,0.999,-19.897,10.254,2.991
-0.175,-0.089,0.976,-15.198,13.428,5.920
-0.142,-0.081,0.983,-9.277,14.221,7.019
-0.136,-0.077,0.994,-6.226,15.564,6.958
-0.087,-0.047,1.033,-4.944,15.930,6.042
-0.102,-0.070,0.995,-2.319,9.155,4.028
-0.122,-0.050,0.981,-3.357,3.174,3.235
-0.103,-0.040,0.976,-3.906,2.319,2.991
-0.111,-0.038,0.960,-3.113,1.587,1.953
-0.123,-0.051,0.945,-0.977,2.563,1.770
-0.167,-0.057,0.869,0.000,7.690,1.404
-0.085,-0.037,0.996,-0.732,22.644,1.587
-0.093,-0.066,0.989,-0.793,26.733,2.014
-0.087,-0.034,0.943,-3.601,26.245,2.319
-0.150,-0.063,0.956,-4.272,32.166,2.075
-0.059,-0.050,1.038,-6.897,39.429,0.977
-0.064,-0.039,0.995,-6.226,33.813,-1.465
-0.040,-0.020,1.000,-5.188,27.832,-0.671
-0.068,-0.035,0.992,-3.479,22.522,1.221
-0.063,-0.035,1.006,-2.808,18.372,2.136
-0.059,-0.031,0.999,-1.099,13.428,2.930
-0.071,-0.045,0.981,0.366,8.850,3.113
-0.062,-0.027,0.976,0.549,7.507,2.441
-0.083,-0.047,0.980,1.099,6.775,1.831

-0.269,-0.099,0.925,12.878,-10.132,-8.301
-0.309,-0.113,0.927,1.831,-10.071,-10.010
-0.300,-0.117,0.932,-8.972,-6.470,-12.878
-0.266,-0.042,0.853,-20.020,-3.540,-14.771
-0.197,-0.002,0.857,-21.790,0.061,-16.235
0.263,0.328,0.035,-17.822,3.906,-14.099
0.039,0.075,0.236,29.480,-2.869,1.221
-0.102,-0.116,0.643,61.096,-8.240,7.263
-0.197,-0.105,0.745,41.260,-2.991,8.545
-0.167,-0.066,0.652,15.747,4.272,5.005
-0.097,-0.038,0.488,2.502,10.315,-1.343
-0.078,-0.021,0.316,-1.343,5.676,-5.127
-0.085,0.004,0.183,1.648,-6.409,-9.521
-0.068,0.003,0.091,8.972,-20.020,-15.991
-0.042,0.015,0.088,18.921,-33.569,-21.423
0.042,0.032,0.113,27.405,-42.175,-24.963
0.155,0.070,0.120,29.724,-42.786,-25.635
0.255,0.114,0.140,29.541,-37.537,-21.667
0.316,0.116,0.198,28.809,-31.250,-13.855
0.298,0.077,0.251,25.574,-25.146,-2.869
0.174,0.019,0.267,16.296,-15.381,8.850
0.000,-0.036,0.242,5.371,2.197,17.029
-0.094,-0.049,0.214,-0.671,23.865,18.982
-0.197,-0.092,0.253,0.732,35.461,18.433
-0.295,-0.132,0.311,4.272,34.546,16.296
-0.355,-0.125,0.411,7.324,25.208,10.742
-0.374,-0.157,0.555,12.695,11.536,2.319
-0.355,-0.171,0.642,9.583,3.662,-6.714
-0.266,-0.121,0.664,-2.258,9.399,-16.602
-0.192,-0.105,0.633,-14.709,25.757,-22.766
-0.194,-0.081,0.492,-27.405,45.898,-24.231
-0.179,0.005,0.268,-36.865,63.232,-23.499
-0.190,0.042,0.164,-30.823,66.284,-21.667
-0.162,0.034,0.317,-11.658,58.411,-21.545
-0.201,-0.038,0.615,7.202,51.270,-23.010
-0.297,-0.117,0.836,11.353,50.659,-23.499
-0.321,-0.146,0.872,0.977,56.152,-26.733
-0.243,-0.096,0.750,-12.817,64.453,-32.471
-0.138,0.004,0.612,-18.616,72.693,-37.415
-0.070,0.030,0.613,-10.437,74.646,-36.682
-0.113,0.023,0.713,2.319,70.374,-35.217
-0.143,0.002,0.831,9.644,70.129,-35.645
-0.128,-0.010,0.924,9.705,75.195,-37.720
-0.129,-0.001,1.015,5.554,81.360,-38.330
-0.146,-0.004,1.055,-2.441,90.210,-38.940
-0.160,-0.016,0.964,-12.146,98.755,-39.856
-0.135,0.016,0.847,-17.517,93.323,-40.283
-0.070,-0.001,0.850,-10.498,68.909,-41.016
0.066,0.003,0.947,-0.305,39.551,-41.504
0.228,-0.011,0.960,4.272,16.968,-38.635
0.276,0.106,0.901,1.465,4.639,-30.273
0.199,0.044,1.042,0.122,3.418,-18.494
0.067,0.026,0.907,-5.005,10.437,-8.057
-0.378,0.079,0.901,-1.526,27.649,-9.766
0.198,-0.133,1.103,15.198,45.654,-14.160
-0.097,0.016,1.163,23.621,43.152,-20.874
0.164,0.057,1.102,19.043,54.260,-22.217
0.160,-0.049,1.307,20.691,74.036,-18.188
0.131,-0.144,1.558,29.175,78.796,-10.620
-0.130,-0.359,1.785,35.706,62.561,-5.920
-0.141,-0.329,1.760,24.353,28.564,-9.094
-0.065,-0.253,1.758,18.860,7.263,-19.226
0.059,-0.171,1.726,17.822,1.221,-24.841
0.162,-0.086,1.593,7.874,3.418,-21.484
0.167,-0.043,1.435,2.991,10.559,-15.930
0.132,-0.025,1.317,6.470,9.460,-9.399
-0.024,-0.110,1.169,19.653,-1.648,-4.272
0.147,-0.050,1.635,51.453,4.089,-15.930
-0.045,-0.264,1.949,61.829,-7.202,-7.385
-0.026,-0.233,1.981,36.377,11.597,-6.042
-0.001,-0.194,1.862,13.611,23.437,-7.141
-0.108,-0.199,1.700,10.620,5.859,-7.385
-0.064,-0.105,1.569,14.221,-22.217,-7.996
-0.032,-0.068,1.474,22.766,-42.908,-5.798
0.039,-0.024,1.389,27.222,-56.458,3.296
-0.280,-0.077,1.179,26.245,-56.091,12.573
0.060,-0.005,1.274,37.598,-4.333,-1.831
1.110,-0.136,4.000,89.905,-57.983,-1.587
-2.343,-2.323,4.000,112.732,-361.267,20.935
0.160,0.789,-0.526,-335.571,-45.898,-38.391
-0.441,1.323,-1.516,-306.091,99.731,-92.407
-0.402,0.801,0.243,-59.265,87.769,-20.813
-0.318,-0.567,2.049,165.894,54.260,-17.029
-0.004,-0.501,2.137,82.581,37.048,-25.330
0.030,0.079,0.608,-91.309,50.964,-19.958
-0.018,0.231,0.003,-103.394,78.918,-12.634
-0.263,-0.170,0.683,-0.977,102.783,-5.493
0.017,-0.587,1.863,39.001,126.831,-13.367
0.183,-0.546,1.718,3.540,66.284,-34.485
0.281,0.212,0.550,-60.730,14.648,-31.494
0.161,0.082,0.865,-30.701,2.869,-19.531
0.003,-0.117,1.172,3.235,-2.258,-5.493
0.023,0.039,0.903,-10.620,0.732,-0.854
0.029,0.033,0.899,-6.226,1.099,2.808
0.035,-0.041,1.026,6.531,0.732,5.249
0.050,-0.036,0.991,5.066,0.305,6.836
0.055,-0.035,0.969,1.526,-0.977,7.935
0.042,-0.024,0.985,1.038,-2.197,7.935
0.025,0.002,0.967,0.122,-3.113,7.507
0.030,0.033,0.968,0.610,-3.357,6.165
0.027,0.036,0.975,3.235,-3.479,4.883
0.027,0.034,0.969,4.639,-3.418,4.395
0.028,0.037,0.947,5.493,-2.502,4.639
0.032,0.022,0.966,8.545,-1.526,5.493
0.027,-0.009,0.994,11.169,-0.732,6.409
0.043,-0.026,0.990,10.803,-0.244,7.385
0.031,-0.024,0.986,8.789,-0.427,8.789
0.024,-0.022,0.989,8.484,-0.488,8.606
0.026,-0.013,0.982,7.690,-0.122,7.751
0.031,0.000,0.982,6.897,0.183,7.263
0.036,0.016,0.967,6.165,0.122,7.019
0.036,0.033,0.966,6.531,-0.061,7.141
0.035,0.027,0.964,8.484,0.183,6.592
0.063,0.003,0.961,10.864,0.671,5.676
0.050,-0.012,0.979,11.841,-0.061,5.554
0.048,-0.020,0.992,10.620,-1.038,5.798
0.042,-0.012,0.975,8.057,-1.587,5.249
0.033,-0.013,0.977,6.958,-2.319,4.272
0.029,-0.010,0.973,6.409,-2.808,3.357

-0.216,-0.014,0.776,-19.897,0.793,-3.296
-0.173,0.020,0.653,-27.100,2.197,-3.906
-0.129,-0.092,0.832,-21.301,0.000,-4.883
0.041,0.176,0.339,-26.428,-4.272,-2.991
-0.069,0.195,0.070,-0.366,-13.123,4.944
-0.175,-0.026,0.297,49.927,-19.409,9.460
-0.183,-0.017,0.486,60.974,-15.930,7.019
-0.246,-0.077,0.632,57.800,-15.320,4.822
-0.255,-0.084,0.614,43.152,-8.301,2.563
-0.231,-0.064,0.541,23.865,1.221,0.061
-0.227,-0.058,0.461,7.690,5.737,-0.916
-0.256,-0.055,0.370,-4.639,4.883,-0.488
-0.285,-0.057,0.373,-10.620,1.221,-1.282
-0.264,-0.031,0.346,-16.174,0.061,-4.089
-0.190,0.017,0.317,-20.020,-0.244,-7.141
-0.131,0.029,0.380,-18.616,-2.014,-8.606
-0.108,-0.011,0.444,-18.005,-3.784,-7.935
-0.072,0.003,0.447,-24.658,-6.287,-6.836
-0.006,0.056,0.495,-31.067,-8.423,-5.981
-0.016,0.051,0.601,-30.884,-9.705,-4.578
-0.108,-0.003,0.684,-29.602,-10.620,-3.174
-0.167,-0.000,0.662,-32.776,-8.606,-3.418
-0.226,0.028,0.558,-34.180,-3.540,-5.859
-0.247,0.066,0.420,-28.625,0.427,-10.132
-0.217,0.114,0.320,-17.212,0.488,-14.404
-0.138,0.145,0.354,-4.639,0.977,-18.860
-0.037,0.129,0.440,4.822,3.174,-21.179
-0.011,0.110,0.529,5.676,3.845,-19.775
-0.042,0.040,0.605,0.305,5.554,-16.724
-0.066,0.014,0.631,-10.681,8.301,-15.564
-0.078,0.021,0.666,-21.423,10.803,-16.235
-0.094,0.035,0.734,-29.053,15.930,-16.724
-0.131,0.047,0.789,-36.499,26.428,-17.151
-0.193,0.051,0.749,-43.823,38.635,-17.944
-0.203,0.078,0.663,-46.021,47.241,-19.592
-0.160,0.118,0.581,-38.940,47.974,-21.423
-0.098,0.136,0.539,-24.048,39.246,-20.874
-0.078,0.142,0.525,-7.629,27.222,-18.005
-0.100,0.116,0.589,6.897,20.264,-14.099
-0.142,0.102,0.701,15.930,20.691,-11.536
-0.159,0.076,0.814,20.630,28.809,-11.047
-0.178,0.050,0.887,19.714,38.940,-10.132
-0.177,0.039,0.912,14.832,49.805,-9.949
-0.157,0.053,0.911,9.888,58.777,-10.437
-0.136,0.062,0.907,8.667,63.171,-11.780
-0.110,0.053,0.850,10.193,63.171,-13.550
-0.051,0.082,0.776,10.193,56.885,-15.442
-0.042,0.092,0.740,14.099,46.326,-15.076
-0.012,0.105,0.707,20.874,39.185,-13.855
0.004,0.093,0.698,26.001,33.691,-11.475
-0.018,0.077,0.778,30.334,31.677,-8.057
-0.040,0.069,0.898,31.982,40.405,-5.493
-0.046,0.047,1.010,32.349,58.167,-4.883
-0.055,0.017,1.084,31.494,73.486,-4.456
-0.050,-0.017,1.076,29.297,76.111,-4.761
-0.035,-0.027,1.046,25.696,67.139,-6.226
-0.057,-0.026,0.985,22.034,53.101,-8.362
-0.092,-0.033,0.890,20.020,40.161,-11.353
-0.046,0.014,0.810,21.851,30.334,-16.296
-0.012,0.033,0.792,29.541,26.489,-20.508
0.041,0.024,0.865,39.734,27.893,-22.156
0.087,-0.007,1.073,41.626,31.128,-20.508
0.077,-0.037,1.165,29.663,38.086,-15.747
0.245,-0.011,1.144,9.521,45.105,-13.428
-0.106,0.063,0.889,-4.883,33.325,-10.071
0.151,0.161,0.782,4.761,40.588,-17.944
0.130,0.055,1.073,33.630,33.203,-21.790
0.067,0.053,1.228,39.063,4.944,-18.005
-0.234,-0.001,1.226,33.691,-6.287,-17.944
0.111,-0.095,1.194,32.410,-1.770,-22.400
-0.076,-0.030,1.132,34.058,-2.380,-27.832
0.044,-0.011,1.172,33.997,-0.183,-29.541
0.139,-0.013,1.340,38.696,16.785,-31.067
0.141,-0.062,1.485,35.278,30.273,-26.367
0.075,-0.089,1.431,23.560,44.250,-20.691
0.101,-0.079,1.304,17.822,49.255,-20.142
0.177,-0.066,1.366,27.527,39.246,-22.156
0.232,-0.108,1.688,45.471,20.386,-20.325
0.180,-0.150,2.018,49.316,4.822,-14.954
0.058,-0.227,2.104,34.546,3.723,-11.292
-0.016,-0.194,1.863,8.179,10.315,-11.169
-0.082,-0.119,1.517,-7.507,12.085,-14.221
-0.007,-0.041,1.377,-0.488,12.512,-20.264
0.071,-0.041,1.464,16.235,10.315,-21.484
0.084,-0.036,1.438,21.912,12.512,-17.090
0.047,-0.017,1.435,20.874,18.982,-11.414
0.311,-0.074,1.687,32.227,20.325,-9.338
0.103,-0.200,1.831,36.133,12.573,-11.658
0.131,-0.099,1.809,26.062,3.479,-11.108
0.193,-0.095,1.874,21.606,1.343,-7.812
0.177,-0.069,1.864,13.245,-11.841,-1.038
0.031,-0.128,1.801,8.240,-37.781,7.568
-0.132,-0.178,1.621,2.075,-50.598,9.399
-0.119,-0.087,1.294,-13.916,-39.734,4.333
-0.076,-0.019,1.036,-19.043,-20.813,-1.709
-0.057,-0.021,0.940,-8.972,-11.841,-2.991
-0.066,-0.048,0.871,1.160,-5.737,-1.038
-0.043,-0.019,0.880,7.996,-5.737,2.625
-0.082,-0.099,1.082,23.315,-9.094,4.517
-0.115,-0.178,1.245,30.579,-15.015,5.432
-0.076,-0.144,1.269,20.935,-18.311,4.639
-0.073,-0.119,1.227,12.512,-14.709,3.906
-0.065,-0.117,1.196,10.559,-7.324,1.953
-1.065,-0.902,3.794,8.667,3.113,-1.099
0.032,-0.502,2.809,-112.427,64.697,-6.104
-0.327,0.414,-0.374,-198.853,20.386,-48.950
0.229,0.591,0.167,-53.223,-35.645,-56.152
0.153,0.105,1.418,37.476,8.057,-28.442
-0.225,-0.199,1.460,18.555,16.602,-5.005
-0.015,0.231,0.728,-37.109,7.812,-8.972
0.137,0.211,0.668,-18.982,4.211,-13.672
0.005,-0.019,1.021,18.982,0.549,-6.287
-0.058,-0.098,1.108,17.639,2.563,-0.732
0.058,-0.047,1.017,1.099,1.953,-1.404
0.041,-0.024,0.945,-8.118,-0.977,1.282
0.035,-0.042,0.967,-5.615,-1.282,3.601
0.030,-0.049,1.007,-2.258,-1.404,3.845
0.061,-0.023,0.970,-3.784,-1.282,3.845
0.059,-0.007,0.947,-3.967,-0.427,4.150

-0.187,-0.164,0.828,-23.682,11.963,5.798
-0.181,-0.113,0.755,-40.955,14.893,3.296
-0.058,-0.063,0.607,-52.002,16.052,0.488
0.012,0.038,0.248,-49.011,13.489,2.991
-0.055,-0.013,0.445,-20.386,8.728,5.127
0.032,-0.084,0.101,-2.869,10.437,4.822
0.020,0.058,-0.053,25.635,12.329,3.113
-0.019,-0.198,0.417,63.965,7.202,4.333
-0.000,-0.199,0.796,53.589,2.869,4.761
0.008,-0.164,0.743,14.648,1.221,5.005
-0.025,-0.150,0.515,-13.977,0.427,4.272
-0.045,-0.123,0.291,-26.855,0.122,0.793
-0.051,-0.090,0.192,-27.222,-2.319,-3.540
-0.068,-0.079,0.244,-20.569,-7.202,-8.850
-0.073,-0.088,0.260,-16.235,-13.977,-15.137
-0.092,-0.057,0.136,-18.005,-25.085,-21.667
-0.071,0.007,0.008,-16.602,-42.114,-29.053
-0.002,0.058,0.059,-5.005,-61.035,-36.560
0.106,0.065,0.152,6.958,-75.684,-41.016
0.185,0.109,0.221,8.667,-84.534,-39.124
0.178,0.120,0.310,6.165,-84.534,-31.982
0.138,0.090,0.328,0.427,-73.853,-23.193
0.055,0.067,0.259,-9.949,-57.739,-14.404
-0.070,0.066,0.200,-17.334,-40.039,-6.714
-0.204,0.056,0.266,-17.700,-20.508,-3.784
-0.309,0.017,0.333,-17.456,1.709,-5.798
-0.352,0.067,0.281,-25.635,23.376,-11.353
-0.353,0.143,0.175,-32.776,38.574,-18.005
-0.312,0.183,0.087,-31.738,47.607,-24.475
-0.226,0.235,0.152,-24.353,54.565,-30.396
-0.228,0.164,0.329,-12.146,61.096,-33.752
-0.250,0.113,0.389,-6.897,63.721,-34.180
-0.253,0.138,0.438,-6.287,60.730,-33.752
-0.270,0.063,0.592,1.648,58.899,-33.875
-0.369,-0.033,0.615,3.418,61.890,-34.729
-0.372,0.033,0.549,-2.930,73.364,-40.710
-0.255,0.065,0.652,1.160,90.210,-48.767
-0.240,0.011,0.890,12.329,99.731,-54.016
-0.269,-0.019,0.983,9.644,102.966,-55.969
-0.256,0.007,0.879,-0.977,100.586,-57.678
-0.178,0.058,0.771,-0.732,90.759,-60.974
-0.073,0.099,0.775,13.428,77.393,-61.951
-0.013,0.101,0.907,31.128,65.308,-59.631
-0.027,0.032,1.132,46.387,56.458,-55.603
-0.082,-0.028,1.274,49.133,53.101,-52.490
-0.068,-0.028,1.377,42.053,51.331,-50.537
-0.121,-0.116,1.441,38.025,46.570,-48.645
-0.168,-0.095,1.215,25.085,36.194,-45.959
-0.057,0.017,0.987,18.738,23.254,-44.861
0.019,0.015,1.112,38.208,8.911,-41.748
-0.024,-0.085,1.378,57.556,0.854,-34.729
-0.086,-0.130,1.550,54.016,8.545,-28.381
-0.282,-0.165,1.487,38.940,18.372,-24.048
-0.170,-0.210,1.611,38.757,39.246,-33.081
-0.187,-0.213,1.658,39.001,35.156,-38.635
-0.018,-0.108,1.601,36.072,33.264,-43.823
0.131,-0.083,1.605,39.978,26.794,-44.006
0.196,-0.028,1.658,46.204,9.766,-36.194
0.166,-0.064,1.688,48.950,1.770,-25.635
0.102,-0.101,1.810,45.776,6.836,-16.846
0.016,-0.187,1.903,40.955,17.029,-11.230
0.033,-0.211,1.972,31.799,22.888,-8.423
0.045,-0.192,1.980,23.437,27.893,-6.226
0.014,-0.208,1.892,16.113,31.982,-3.845
0.024,-0.168,1.831,15.808,23.437,-2.869
0.016,-0.172,1.899,27.039,11.414,-4.639
0.071,-0.197,1.949,34.973,11.597,-6.958
0.044,-0.179,1.759,25.452,14.343,-3.784
0.081,-0.125,1.544,18.005,24.658,-1.587
0.094,-0.151,1.466,23.621,32.532,0.793
0.096,-0.204,1.526,32.349,34.973,3.296
0.115,-0.274,1.642,37.109,37.415,4.456
0.120,-0.323,1.672,33.691,35.339,5.676
0.291,-0.265,1.554,24.048,28.259,7.080
-0.035,-0.312,1.422,14.099,19.165,6.836
0.328,-0.172,1.384,7.690,25.757,2.686
0.075,-0.245,1.286,16.174,-9.155,12.695
0.183,-0.212,1.252,17.029,-5.493,13.367
-0.421,-1.728,4.000,-64.575,-18.982,10.681
-0.590,1.547,1.605,-322.327,-35.156,42.053
0.073,-0.401,0.910,-51.941,-13.916,-9.399
-0.180,0.275,0.815,-2.197,-19.714,-19.836
-0.044,0.164,1.056,-16.968,6.287,-4.639
-0.187,-0.105,1.060,9.094,7.568,-4.272
-0.048,-0.067,0.869,-3.296,4.150,-0.244
0.010,-0.127,1.046,-2.441,5.310,3.235
0.031,-0.144,0.954,-5.798,3.113,5.554
0.056,-0.139,0.956,-11.292,0.977,6.592
0.064,-0.142,1.003,-10.071,0.977,6.104
0.075,-0.106,0.991,-10.559,-0.732,4.700
0.041,-0.072,0.997,-10.925,-2.258,4.211
0.014,-0.021,0.965,-11.719,-2.930,5.310
0.007,0.008,0.937,-10.132,-1.465,6.714
0.007,0.008,0.956,-5.310,1.404,7.874
0.005,0.003,0.957,-0.977,3.662,8.484
0.017,-0.004,0.959,2.075,5.127,8.972
0.017,-0.021,0.983,4.822,5.920,9.705
0.037,-0.037,0.979,6.836,5.371,10.193
0.043,-0.051,0.985,7.568,4.944,10.132
0.039,-0.066,0.979,7.568,3.906,10.193
0.058,-0.064,0.986,5.371,3.784,9.644
0.055,-0.042,0.963,2.808,2.930,9.094
0.050,-0.025,0.967,1.892,1.953,8.911
0.026,-0.009,0.969,2.747,0.793,8.545
0.015,-0.002,0.966,4.089,0.549,7.751
0.022,-0.010,0.970,5.981,1.099,6.409
0.017,-0.026,0.976,8.301,1.038,5.493
0.018,-0.042,0.979,9.583,1.038,4.761
0.018,-0.061,0.986,10.254,0.916,4.333
0.017,-0.068,0.982,9.766,0.366,3.967
0.019,-0.067,0.981,8.362,-0.122,3.906
0.019,-0.061,0.983,7.019,-0.427,3.906
0.024,-0.050,0.981,5.737,-0.427,3.662
0.022,-0.036,0.981,4.700,-0.549,3.357
0.030,-0.029,0.972,4.333,-1.343,3.052
0.034,-0.027,0.972,4.578,-1.465,2.991
0.041,-0.032,0.971,5.127,-1.831,3.174
0.037,-0.042,0.974,5.493,-2.319,3.418
0.035,-0.040,0.972,4.944,-2.136,3.174

-0.144,-0.000,0.677,-7.568,-11.108,-6.714
-0.179,-0.005,0.639,-11.414,-11.230,-7.263
-0.201,-0.007,0.590,-13.245,-12.756,-8.789
-0.140,0.051,0.527,-11.414,-14.893,-8.728
-0.182,0.025,0.476,2.319,-16.357,-5.981
-0.251,-0.036,0.471,18.677,-18.127,-6.409
0.045,0.128,0.339,19.836,-17.151,0.122
-0.186,-0.150,0.696,33.997,-27.649,10.803
-0.205,-0.076,0.653,11.230,-14.038,9.094
-0.199,-0.018,0.508,-14.343,3.479,7.935
-0.211,-0.010,0.449,-19.714,13.000,7.507
-0.243,-0.010,0.421,-22.156,20.447,6.287
-0.290,-0.017,0.403,-24.719,24.902,4.333
-0.315,-0.020,0.377,-27.161,27.405,0.244
-0.297,-0.007,0.344,-28.442,24.414,-5.920
-0.300,-0.011,0.296,-27.771,14.709,-13.245
-0.291,0.002,0.278,-25.696,2.502,-20.874
-0.235,0.004,0.321,-21.179,-9.338,-29.602
-0.152,-0.005,0.361,-16.907,-22.278,-35.889
-0.098,-0.000,0.342,-17.517,-36.316,-36.682
-0.063,0.033,0.289,-20.996,-45.471,-35.034
-0.006,0.083,0.235,-21.790,-47.363,-33.569
0.018,0.098,0.218,-18.250,-46.448,-31.128
-0.047,0.088,0.244,-13.611,-43.335,-28.076
-0.104,0.087,0.271,-11.230,-36.682,-27.283
-0.160,0.072,0.316,-8.789,-31.311,-29.602
-0.194,0.064,0.316,-7.935,-29.114,-32.471
-0.202,0.095,0.265,-11.230,-26.306,-34.973
-0.163,0.119,0.215,-11.902,-20.325,-37.170
-0.110,0.134,0.245,-7.690,-13.184,-38.879
-0.091,0.087,0.295,-1.160,-7.324,-37.292
-0.073,0.092,0.285,-1.831,-0.610,-33.386
-0.056,0.102,0.312,-2.319,10.071,-28.931
-0.060,0.080,0.426,2.014,23.193,-24.597
-0.019,0.062,0.520,2.686,35.706,-20.264
-0.046,0.082,0.557,-2.747,44.922,-15.137
-0.158,0.054,0.467,-9.583,52.307,-10.986
-0.303,0.041,0.326,-13.550,55.237,-11.597
-0.350,0.041,0.302,-6.531,54.810,-19.531
-0.243,0.034,0.398,7.874,55.298,-31.311
-0.113,0.044,0.550,18.188,57.251,-39.368
-0.016,0.034,0.625,19.348,63.965,-41.382
0.066,0.077,0.608,14.648,75.989,-38.757
0.084,0.073,0.622,13.550,85.876,-33.264
0.093,0.046,0.698,17.090,90.393,-27.222
0.115,0.039,0.787,19.470,86.792,-22.156
0.016,0.002,0.895,21.851,76.111,-17.883
-0.097,-0.076,0.946,25.208,71.289,-19.287
-0.136,-0.108,0.961,22.034,62.866,-24.048
-0.121,-0.082,0.848,15.015,45.776,-31.189
-0.002,0.005,0.786,14.587,36.255,-39.246
0.112,0.034,0.922,26.428,33.569,-44.128
0.149,0.001,1.110,35.461,31.250,-41.809
0.118,0.001,1.221,31.494,37.537,-36.316
0.028,-0.032,1.306,22.888,52.063,-29.968
-0.078,-0.114,1.375,15.869,59.509,-24.902
-0.151,-0.124,1.308,5.737,53.467,-23.193
0.331,-0.184,1.722,-1.648,24.841,-23.254
-0.443,0.079,0.646,-21.790,-39.734,-17.395
0.307,0.276,0.851,23.499,30.396,-50.415
0.209,-0.090,1.461,81.970,13.916,-42.847
-0.002,-0.062,1.705,73.181,-10.864,-19.836
-0.085,-0.053,1.787,53.162,8.789,-11.658
-0.125,-0.122,1.944,50.232,32.288,-10.010
-0.200,-0.122,2.004,41.382,33.203,-8.789
-0.214,-0.203,2.200,38.330,31.982,-14.465
-0.036,-0.127,2.237,35.583,36.316,-24.780
0.042,-0.061,2.109,19.409,27.527,-23.987
0.031,-0.027,1.994,8.911,13.245,-15.930
0.052,-0.022,1.979,10.437,14.954,-10.803
0.090,-0.027,1.915,10.071,10.986,-3.052
-0.054,0.026,1.710,10.437,2.197,4.333
0.023,0.046,1.536,21.851,7.935,6.042
-0.026,0.067,1.419,35.645,3.906,11.353
-0.025,0.000,1.431,51.086,10.132,16.052
-0.078,-0.129,1.541,65.552,17.212,18.616
-0.034,-0.177,1.715,69.641,15.320,18.005
-0.169,-0.261,1.709,63.538,3.601,18.799
-0.217,-0.276,1.640,52.002,-3.113,11.353
-0.134,-0.279,1.680,43.823,-4.700,-0.305
-0.071,-0.207,1.552,25.452,-0.488,-5.676
-0.099,-0.156,1.302,2.747,11.597,-6.348
-0.011,-0.059,1.095,-11.902,33.325,-7.385
0.254,0.109,1.069,-5.127,39.001,-5.127
-0.071,-0.119,1.094,26.428,3.235,3.357
-0.234,0.253,1.512,50.964,-19.226,-5.493
-0.705,-1.523,4.000,112.610,-80.200,-34.973
2.027,1.660,1.152,-130.554,14.282,-27.344
-0.657,0.175,0.125,-72.449,-173.584,56.580
-1.331,-0.431,-0.312,-16.296,-158.875,89.050
-0.427,0.243,-0.314,-58.899,27.893,19.409
-0.333,-0.037,0.320,21.179,43.213,-1.709
-0.390,-0.220,1.261,87.830,-18.127,-3.113
-0.034,-0.312,1.904,67.627,28.931,-8.484
0.080,-0.062,1.081,-13.000,73.486,-11.719
-0.011,0.109,0.545,-44.189,56.885,0.183
-0.037,-0.088,0.864,-2.930,65.369,3.052
-0.056,-0.240,1.309,11.230,79.773,7.446
-0.025,-0.141,1.126,-17.334,80.322,8.362
-0.002,-0.113,1.059,-22.888,65.796,5.737
0.042,-0.154,1.106,-7.996,44.861,2.930
0.075,-0.093,0.977,-7.263,26.672,4.395
0.065,-0.106,0.989,-4.150,15.320,7.446
0.018,-0.133,0.998,0.427,9.766,9.155
0.039,-0.117,0.965,-0.305,8.911,9.766
-0.013,-0.155,0.990,1.038,7.568,11.108
0.010,-0.123,0.980,1.160,6.897,11.169
0.006,-0.113,0.973,0.610,6.470,12.085
-0.004,-0.096,0.993,-1.343,7.141,12.878
0.036,-0.057,0.979,-1.831,6.836,11.108
0.040,-0.064,0.977,0.122,5.249,9.094
0.034,-0.055,0.978,1.160,2.991,7.446
0.032,-0.045,0.985,1.221,1.953,5.981
0.031,-0.036,0.980,1.648,1.038,4.639
0.021,-0.041,0.971,2.563,0.610,3.845
0.019,-0.048,0.966,3.357,1.160,3.967
0.012,-0.047,0.980,3.662,1.526,4.639
0.016,-0.048,0.978,4.150,0.671,5.310
0.022,-0.051,0.978,4.944,0.122,5.371

-0.112,-0.036,0.712,-16.968,-15.320,-1.038
-0.104,-0.039,0.652,-30.945,-10.681,-0.488
-0.077,-0.009,0.539,-45.410,-6.348,-0.427
-0.030,0.078,0.316,-53.101,-3.113,0.305
-0.058,0.140,0.088,-45.776,-4.761,0.793
0.012,0.222,-0.367,-25.024,-5.249,2.319
-0.004,0.010,-0.206,32.654,-5.066,-0.061
0.041,-0.080,0.061,62.622,-4.822,-3.723
0.083,-0.156,0.405,54.626,-11.902,-6.531
0.099,-0.157,0.480,21.912,-22.522,-8.179
0.127,-0.106,0.278,-14.526,-27.283,-11.047
0.152,-0.075,0.032,-36.011,-27.283,-14.709
0.186,-0.032,-0.147,-44.006,-26.123,-18.005
0.176,-0.036,-0.241,-41.565,-25.635,-20.020
0.181,-0.036,-0.352,-36.255,-26.550,-20.386
0.155,0.001,-0.396,-27.222,-32.227,-17.944
0.098,-0.020,-0.321,-12.451,-37.781,-15.808
0.068,-0.034,-0.221,-0.671,-41.016,-14.648
0.049,-0.025,-0.084,4.944,-47.974,-15.259
0.050,-0.032,0.050,5.920,-52.307,-17.212
0.086,-0.020,0.121,-0.183,-51.025,-19.592
0.062,-0.014,0.078,-12.268,-45.959,-19.470
0.046,0.023,-0.095,-26.917,-33.264,-18.738
0.036,0.115,-0.304,-37.476,-8.118,-20.386
0.065,0.193,-0.351,-34.119,23.926,-21.057
0.001,0.192,-0.065,-16.968,52.856,-18.860
-0.224,0.018,0.206,-5.493,76.233,-15.137
-0.505,-0.057,0.190,-18.188,87.769,-15.930
-0.614,-0.055,0.007,-32.593,90.332,-27.466
-0.500,-0.006,-0.029,-25.696,87.463,-46.875
-0.298,0.037,0.021,-7.507,80.811,-62.988
-0.126,0.153,0.143,4.883,79.041,-69.092
-0.074,0.196,0.396,18.311,87.769,-65.918
-0.108,0.200,0.641,26.733,105.103,-59.692
-0.178,0.185,0.762,25.513,123.535,-55.054
-0.249,0.167,0.859,23.376,130.615,-54.626
-0.428,0.037,0.860,27.771,115.540,-58.838
-0.451,0.054,0.759,32.776,85.754,-70.862
-0.287,0.104,0.859,53.711,56.641,-85.693
-0.214,0.036,1.259,83.313,38.940,-90.515
-0.209,-0.029,1.486,85.327,42.969,-86.548
-0.245,0.033,1.493,62.317,69.702,-80.200
-0.189,0.035,1.543,47.668,107.666,-78.491
-0.054,0.024,1.709,46.143,132.996,-82.092
0.182,0.068,1.854,46.875,130.310,-85.693
0.351,0.168,1.959,44.922,102.600,-83.618
0.548,0.215,2.230,45.593,61.890,-71.716
0.344,0.301,1.853,36.804,21.912,-53.162
0.336,0.339,1.780,48.157,15.381,-48.645
0.287,0.345,1.754,62.256,-20.020,-32.410
0.349,0.311,1.806,75.012,-28.381,-20.691
0.189,0.196,1.920,74.585,-42.114,-1.587
0.042,0.023,1.989,69.519,-36.560,10.376
-0.006,0.029,1.949,56.519,-19.287,14.526
-0.119,0.001,1.830,39.124,-15.381,19.531
-0.165,-0.033,1.844,39.673,-3.601,18.127
-0.074,-0.051,1.953,43.579,4.211,13.428
-0.152,0.003,1.912,43.701,0.427,8.423
-0.005,0.032,1.928,50.537,5.493,0.366
0.016,0.040,1.876,54.810,3.784,-0.916
0.049,0.034,1.873,51.025,9.155,1.770
0.028,-0.051,1.935,52.002,23.132,2.502
0.097,-0.117,1.988,50.232,36.865,0.244
0.309,-0.095,2.087,43.335,40.527,-2.686
0.251,-0.115,1.958,29.846,32.166,2.014
0.227,-0.088,1.590,9.399,27.710,5.249
0.131,-0.056,1.337,3.296,23.132,4.944
0.161,-0.000,1.342,16.357,19.592,6.165
0.072,-0.079,1.431,36.438,-0.366,14.771
-0.000,-0.113,1.436,38.879,2.991,18.127
0.105,-0.066,1.365,30.273,25.452,17.456
0.063,-0.109,1.294,31.982,23.254,20.142
0.020,-0.144,1.186,34.302,15.381,24.231
0.117,-0.408,2.014,39.429,6.348,23.499
-0.581,0.804,3.989,-66.589,-93.262,14.771
0.842,1.006,-0.371,-174.622,-67.566,21.240
-0.606,0.024,-0.093,16.052,-15.808,-4.883
-0.927,-0.581,2.027,35.278,19.409,43.579
-0.243,-0.115,1.356,-9.216,53.650,-3.662
0.113,0.034,0.379,-27.893,1.648,-15.686
0.098,-0.058,1.074,-1.038,6.775,-12.817
-0.010,-0.143,1.157,5.554,0.488,-4.578
0.019,-0.038,0.805,-13.062,-0.366,-3.235
0.036,-0.088,1.031,-7.874,-1.587,-1.404
0.037,-0.081,1.008,-2.441,-1.465,-0.793
0.048,-0.051,0.922,-5.554,-1.526,0.488
0.036,-0.063,1.007,-0.854,-0.732,2.014
0.032,-0.045,0.961,0.671,0.427,3.174
0.036,-0.053,0.984,1.282,1.282,4.333
0.039,-0.055,0.986,2.930,1.648,5.127
0.054,-0.049,0.972,2.991,1.282,5.798
0.052,-0.059,0.989,3.479,0.732,6.897
0.045,-0.041,0.983,2.197,0.427,7.935
0.041,-0.031,0.970,1.892,0.061,8.789
0.038,-0.027,0.965,2.686,0.061,10.132
0.035,-0.023,0.969,3.662,0.000,11.047
0.042,-0.028,0.983,4.883,0.305,10.864
0.025,-0.035,0.965,5.554,0.183,10.315
0.025,-0.036,0.973,5.554,-0.183,9.216
0.028,-0.022,0.963,5.676,-0.488,7.751
-0.005,-0.054,0.991,6.958,-0.977,7.141
0.030,-0.022,0.963,6.592,-1.465,4.944
0.026,-0.038,0.975,7.080,-0.793,4.395
0.008,-0.047,0.986,7.874,-2.075,4.639
0.021,-0.034,0.972,6.409,-1.648,4.517
0.013,-0.043,0.984,6.836,-1.892,4.761
0.015,-0.041,0.979,6.836,-1.526,4.639
0.016,-0.054,0.983,7.507,-0.977,4.333
0.018,-0.058,0.981,7.324,-0.732,4.272
0.024,-0.052,0.980,6.348,-0.549,4.333
0.029,-0.046,0.974,5.554,-0.427,4.028
0.034,-0.042,0.978,5.371,-0.488,3.723
0.035,-0.045,0.977,5.798,-0.854,3.418
0.035,-0.058,0.978,5.920,-1.526,3.174
0.040,-0.052,0.981,4.639,-1.587,3.601
0.047,-0.039,0.967,3.113,-1.160,3.723
0.042,-0.041,0.973,3.601,-1.404,3.174
0.036,-0.042,0.975,4.089,-1.587,2.502
0.033,-0.038,0.975,4.639,-1.892,2.136

-0.249,0.048,0.850,-8.606,9.644,1.892
-0.242,0.019,0.844,-8.606,8.606,2.563
-0.258,-0.038,0.828,-10.803,6.226,3.296
-0.261,-0.046,0.748,-18.799,4.089,2.380
-0.142,-0.096,0.824,-24.231,3.418,0.793
-0.080,0.028,0.458,-24.414,2.136,0.793
0.045,0.025,-0.082,-3.723,1.953,-3.540
0.039,-0.379,0.204,44.983,-8.728,-11.475
0.125,-0.396,0.416,38.574,-36.682,-19.287
0.294,-0.207,0.096,-7.629,-57.617,-28.259
0.456,-0.139,-0.263,-31.067,-62.866,-35.645
0.612,-0.041,-0.558,-39.978,-58.716,-38.757
0.703,-0.007,-0.679,-41.382,-57.068,-37.231
0.723,-0.104,-0.699,-37.598,-61.401,-34.119
0.724,-0.198,-0.805,-46.143,-68.848,-32.471
0.706,-0.196,-1.137,-68.359,-70.984,-30.579
0.635,-0.062,-1.536,-91.614,-61.401,-26.367
0.598,0.059,-1.825,-99.609,-34.119,-24.353
0.505,0.105,-1.944,-91.003,-5.676,-22.461
0.376,0.078,-1.907,-75.378,13.855,-19.897
0.199,0.011,-1.782,-61.340,24.536,-20.203
0.074,-0.016,-1.598,-51.453,35.156,-25.574
-0.034,-0.110,-1.473,-43.640,48.340,-33.325
-0.176,-0.093,-1.285,-38.635,65.308,-45.105
-0.152,-0.176,-1.091,-27.405,80.994,-59.326
-0.091,-0.142,-1.021,-20.386,83.252,-70.374
-0.085,-0.018,-0.796,-10.681,84.473,-74.768
0.033,-0.001,-0.262,10.376,121.277,-79.529
0.227,-0.010,0.234,23.804,175.171,-83.679
0.033,-0.070,0.308,25.452,197.754,-81.421
0.098,0.031,0.568,47.424,179.321,-86.609
0.158,0.031,1.179,91.858,138.916,-90.515
0.113,-0.054,1.996,126.404,106.567,-88.684
0.099,-0.144,2.517,127.319,116.882,-86.243
-0.100,0.148,2.593,89.600,149.536,-88.623
-0.182,-0.051,3.123,84.717,209.106,-101.868
-0.032,-0.087,3.447,86.548,239.319,-122.803
0.383,0.106,3.568,73.303,227.600,-146.423
0.730,0.262,3.663,74.158,193.481,-158.020
1.198,0.500,3.399,72.021,167.419,-152.710
1.431,0.739,3.183,80.383,128.357,-131.226
1.337,0.740,2.968,98.816,93.323,-98.999
1.404,0.516,3.095,112.305,64.575,-58.960
0.622,0.345,3.041,107.666,8.423,-14.343
0.625,0.221,3.006,107.605,26.184,-4.272
0.351,0.079,2.874,97.290,8.118,10.071
0.274,0.135,2.458,76.660,-10.254,18.982
0.612,0.029,2.456,79.468,-14.954,20.752
0.057,0.003,2.166,73.181,-55.969,34.363
-0.044,0.006,1.926,63.477,-59.753,37.781
-0.160,-0.120,1.663,60.608,-50.537,36.987
-0.341,-0.217,1.617,68.909,-38.757,25.085
-0.348,-0.341,1.740,80.078,-18.311,7.446
-0.131,-0.360,1.888,77.026,-5.005,-10.925
0.189,-0.187,1.901,55.786,-4.272,-21.118
0.423,-0.086,1.689,33.508,-2.136,-18.433
0.432,-0.000,1.348,13.733,-1.404,-6.836
0.373,0.066,1.225,12.329,6.042,6.287
0.522,0.020,1.425,35.461,0.610,19.104
0.024,-0.229,1.582,57.983,-40.100,37.537
-0.020,-0.220,1.445,41.626,-50.720,39.917
-0.027,-0.140,1.317,23.743,-27.588,29.724
-0.011,-0.132,1.309,28.931,-32.410,21.362
-0.004,-0.123,1.339,28.564,-34.241,16.785
0.013,-0.146,1.318,23.743,-29.236,12.573
0.049,-0.111,1.234,16.357,-25.574,8.545
0.049,-0.101,1.144,11.719,-27.222,8.118
0.043,-0.102,1.064,11.230,-31.494,10.559
0.058,-0.075,1.078,12.146,-29.602,13.123
0.096,-0.819,3.378,18.555,-43.396,18.066
-0.249,0.578,1.284,-69.641,-105.774,27.893
0.012,0.054,1.441,-66.772,-62.012,15.991
-0.257,0.020,0.791,-25.208,-30.029,6.775
-0.122,-0.069,1.151,-27.344,-28.259,12.268
-0.058,0.079,1.033,-27.771,-22.644,11.353
-0.016,-0.062,1.010,-18.616,-18.982,6.714
0.006,-0.056,0.934,-17.761,-20.325,4.272
-0.023,-0.044,1.042,-21.912,-18.677,2.625
0.007,-0.070,0.984,-21.484,-7.324,-2.930
0.053,-0.074,0.990,-16.907,-3.723,-8.484
0.077,-0.063,0.967,-13.550,-3.723,-10.620
0.077,-0.091,0.974,-8.789,-2.197,-10.986
0.055,-0.115,0.978,-6.042,-2.136,-8.118
0.047,-0.123,0.979,-6.226,-2.502,-4.150
0.030,-0.129,0.987,-6.348,-2.380,-0.610
0.029,-0.116,0.998,-8.362,-1.038,3.174
0.031,-0.077,0.977,-11.597,0.732,6.958
0.026,-0.059,0.979,-11.292,2.808,8.789
0.030,-0.045,0.966,-10.071,3.845,9.888
0.030,-0.026,0.963,-8.179,5.310,10.864
0.027,-0.015,0.971,-5.127,6.104,10.986
0.029,-0.004,0.973,-3.296,5.371,10.803
0.027,0.010,0.961,-1.526,4.517,10.193
0.015,0.004,0.964,1.404,3.479,8.301
0.010,-0.012,0.967,4.089,2.075,6.348
0.020,-0.030,0.968,6.653,1.404,4.456
0.025,-0.053,0.983,9.216,1.160,2.625
0.023,-0.064,0.993,9.033,0.610,2.075
0.021,-0.063,0.994,6.897,-0.122,2.075
0.015,-0.055,0.988,5.005,-0.977,2.014
0.015,-0.046,0.979,3.540,-1.465,1.953
0.019,-0.043,0.977,2.991,-1.587,1.831
0.018,-0.037,0.970,2.991,-1.587,1.465
0.022,-0.038,0.973,3.601,-1.526,1.343
0.021,-0.042,0.980,4.150,-1.587,1.160
0.021,-0.041,0.976,4.456,-1.892,1.099
0.023,-0.036,0.975,4.395,-1.892,1.099
0.026,-0.042,0.979,4.578,-1.770,1.221
0.024,-0.039,0.973,4.761,-1.648,1.099
0.023,-0.043,0.972,5.249,-1.465,1.038
0.026,-0.049,0.978,5.798,-1.282,1.465
0.029,-0.051,0.978,5.676,-0.916,1.770
0.030,-0.051,0.978,5.310,-0.916,1.953
0.030,-0.051,0.979,4.822,-0.732,2.136
0.031,-0.049,0.978,4.333,-0.671,2.136
0.031,-0.045,0.977,3.906,-0.488,2.380
0.030,-0.044,0.979,4.028,-0.488,2.686
0.025,-0.042,0.976,3.967,-0.366,2.930
0.021,-0.042,0.974,4.150,-0.244,2.991

-0.096,-0.016,0.966,16.724,14.832,7.080
-0.033,0.004,0.898,12.207,9.766,6.226
0.036,-0.022,0.867,12.085,2.319,8.545
0.032,-0.101,0.863,10.925,-6.165,12.878
0.090,-0.077,0.806,0.916,-12.451,15.564
0.186,-0.012,0.804,-10.254,-20.630,18.127
0.211,0.018,0.844,-16.357,-34.180,22.217
0.155,-0.052,0.811,-21.729,-48.157,28.625
0.033,0.040,0.637,-31.555,-52.551,37.903
-0.378,0.048,-0.152,-32.043,-41.992,37.964
0.446,0.107,-0.060,9.521,-18.494,23.804
0.044,-0.194,0.465,50.781,-29.968,39.185
-0.111,-0.271,0.908,50.903,-37.292,37.048
-0.206,-0.294,0.781,8.667,-15.869,33.386
-0.093,-0.198,0.415,-25.879,-1.343,23.560
-0.013,-0.120,-0.001,-40.161,-5.432,14.893
-0.033,-0.078,-0.235,-35.889,-22.766,10.315
0.079,0.012,-0.315,-21.606,-35.217,7.202
0.196,0.077,-0.153,-4.028,-40.833,7.263
0.025,-0.012,-0.057,6.409,-40.955,15.808
-0.111,0.002,-0.073,0.488,-30.273,20.630
-0.131,0.061,-0.117,-7.935,-4.272,18.311
-0.205,0.012,-0.062,-4.761,15.442,18.494
-0.250,0.043,0.029,-0.244,21.118,19.470
-0.195,0.025,0.315,4.761,17.639,20.874
-0.558,-0.275,0.296,5.188,11.292,15.808
-0.454,-0.067,-0.164,-17.273,24.902,-3.418
-0.036,0.198,-0.308,-13.184,46.387,-17.639
0.171,0.222,0.130,30.029,56.091,-14.404
0.141,0.055,0.636,62.073,66.895,-2.319
0.074,-0.006,0.919,51.025,73.730,11.353
-0.096,-0.099,1.118,30.151,73.914,20.081
-0.419,-0.181,1.016,4.883,70.496,23.010
-0.984,-0.257,0.628,-25.757,57.007,14.465
-0.971,-0.138,0.349,-32.227,41.443,-14.832
-0.414,0.087,0.351,-9.094,38.452,-49.683
-0.028,0.185,0.553,18.433,28.748,-61.951
0.103,0.218,0.557,22.888,17.883,-50.110
0.079,0.209,0.557,19.470,21.790,-32.410
0.147,0.181,0.733,25.269,45.288,-21.423
0.184,0.105,0.970,28.503,70.068,-10.742
-0.187,-0.097,0.983,20.691,72.815,0.549
-0.388,-0.119,0.808,10.681,45.593,-3.479
-0.288,-0.120,1.015,29.663,1.526,-23.254
-0.148,-0.176,1.271,50.720,-32.715,-37.842
-0.032,-0.039,1.156,33.813,-43.823,-42.542
0.010,0.040,0.810,8.789,-31.616,-40.588
0.025,0.218,0.630,2.197,-7.629,-39.001
0.051,0.149,0.763,18.127,17.883,-32.898
-0.119,0.010,0.944,30.029,30.640,-19.775
-0.462,-0.082,0.772,23.560,20.081,-13.123
-0.294,0.030,0.862,26.917,-4.822,-24.902
-0.136,-0.073,1.363,57.190,-26.184,-33.569
-0.031,-0.100,1.557,50.293,-27.222,-30.151
0.019,0.008,1.288,10.681,-11.658,-19.958
0.012,0.136,1.020,-11.047,6.531,-7.385
-0.017,0.052,1.053,-3.235,14.954,6.348
-0.142,0.002,1.015,5.859,1.099,19.348
-0.229,-0.070,1.236,14.771,-12.085,22.461
-0.354,-0.159,1.336,15.747,-14.771,22.095
-0.263,-0.078,1.272,3.357,-8.118,14.648
-0.218,-0.113,1.296,3.418,-0.427,7.751
-0.144,-0.162,1.330,6.958,1.099,0.916
-0.173,-0.148,1.322,5.676,-3.662,-5.554
-0.144,-0.136,1.375,7.324,-6.592,-13.184
-0.136,-0.136,1.339,6.165,-14.038,-19.287
0.047,-0.030,1.197,-3.906,-12.878,-22.827
0.197,0.044,1.095,-7.874,-3.479,-19.409
0.284,0.040,1.152,-2.014,5.798,-10.132
0.235,-0.000,1.210,4.944,5.188,1.465
0.200,0.010,1.195,6.775,-5.798,13.123
0.069,-0.099,1.320,19.836,-21.790,24.536
-0.028,-0.143,1.384,26.550,-33.386,31.067
-0.051,-0.176,1.506,23.071,-30.884,32.532
-0.115,-0.235,1.506,20.447,-25.024,29.968
-0.115,-0.113,1.397,9.033,-20.630,22.705
-0.113,-0.112,1.312,4.578,-9.583,20.020
-0.107,-0.083,1.187,2.991,-0.366,18.188
-0.118,-0.049,1.058,1.831,1.221,14.648
-0.100,-0.075,1.125,11.353,7.019,11.169
-0.044,-0.205,1.360,23.804,13.611,9.277
-0.024,-0.254,1.409,22.644,10.620,7.385
-0.001,-0.190,1.285,9.460,-0.977,5.371
-0.040,-0.184,1.232,8.728,-10.498,7.141
-0.088,-0.167,1.216,14.526,-16.785,8.484
-0.110,-0.142,1.350,22.522,-22.644,8.240
-0.097,-0.194,1.543,33.691,-23.437,8.179
0.031,-0.107,1.647,31.006,-16.602,6.714
-0.008,-0.211,1.779,25.513,-7.751,8.423
-0.076,-0.191,1.652,16.174,2.075,6.592
-0.080,-0.107,1.544,8.057,0.488,2.869
-0.138,-0.196,1.640,13.489,-4.272,3.601
-0.113,-0.145,1.555,7.874,-5.493,1.465
-0.120,-0.096,1.428,-0.122,-2.686,0.061
-0.099,-0.058,1.320,0.793,4.883,-0.732
-0.036,-0.074,1.345,4.395,7.385,0.122
0.043,-0.049,1.532,8.606,6.592,4.395
0.053,-0.138,1.745,14.526,9.033,9.094
0.019,-0.053,1.616,0.732,0.610,14.709
-0.071,-0.052,1.567,-4.456,-4.639,19.958
-0.190,-0.011,1.470,-4.944,-10.925,21.301
-0.237,-0.031,1.472,-7.690,-12.512,20.081
-0.156,-0.006,1.427,-10.071,-0.977,17.639
-0.120,0.007,1.443,-13.367,11.963,16.907
-0.101,-0.084,1.721,-3.052,16.724,17.456
-0.125,-0.140,1.759,-2.930,19.714,17.639
-0.170,-0.100,1.479,-22.644,23.132,18.738
-0.227,-0.068,1.295,-30.151,23.071,19.897
-0.224,-0.125,1.358,-18.494,20.935,18.860
-0.211,-0.137,1.432,-11.719,15.747,17.639
-0.198,-0.166,1.412,-12.512,15.198,16.174
-0.175,-0.128,1.254,-18.066,12.268,14.221
-0.152,-0.119,1.208,-20.386,4.211,12.146
-0.127,-0.145,1.168,-16.541,-1.709,11.169
-0.091,-0.096,1.039,-18.921,-6.470,10.864
-0.077,-0.091,0.947,-17.212,-8.057,11.597
-0.085,-0.094,0.985,-11.230,-8.118,12.695
-0.105,-0.168,1.143,-2.197,-6.226,12.817
-0.098,-0.172,1.133,-4.028,-2.625,10.986

-0.187,-0.026,0.834,-16.968,5.188,2.991
-0.097,0.033,0.695,-25.208,1.953,4.822
-0.057,0.017,0.542,-26.367,-0.061,7.874
-0.105,0.073,0.669,-13.733,-3.174,6.897
-0.296,0.089,0.188,-2.319,-3.235,6.470
-0.182,-0.023,0.510,9.216,0.122,-0.732
-0.214,0.079,0.354,13.428,-1.099,-4.272
-0.230,-0.191,0.608,27.222,-11.108,-9.155
-0.229,-0.156,0.720,17.944,-16.785,-15.625
-0.188,-0.120,0.615,-5.188,-21.667,-22.888
-0.158,-0.160,0.526,-14.648,-30.029,-30.090
-0.132,-0.139,0.418,-22.827,-40.405,-36.560
-0.005,-0.116,0.279,-30.762,-46.936,-42.664
0.094,-0.063,0.056,-36.926,-49.927,-45.776
0.102,-0.013,-0.182,-40.955,-46.997,-45.410
-0.002,-0.048,-0.260,-36.804,-37.415,-43.335
-0.030,0.025,-0.311,-32.471,-19.165,-43.457
0.093,0.038,-0.150,-18.372,3.174,-46.753
0.127,-0.042,0.140,-5.859,20.874,-48.157
0.089,-0.092,0.198,-16.052,29.602,-46.570
0.072,-0.106,-0.049,-37.903,32.776,-41.992
0.169,0.021,-0.347,-48.035,26.428,-34.668
0.343,0.097,-0.381,-32.410,9.399,-25.879
0.106,-0.039,-0.264,-7.812,-8.667,-13.428
-0.605,-0.204,-0.218,-1.709,-16.113,-8.545
-0.547,-0.173,-0.186,-0.977,5.310,-29.968
-0.203,-0.097,-0.022,9.644,33.569,-53.589
0.034,-0.044,0.215,15.686,51.331,-61.279
0.030,-0.068,0.331,8.545,65.369,-57.617
0.069,-0.028,0.243,-6.226,79.895,-52.368
0.241,0.016,0.377,-10.620,88.623,-51.270
-0.033,-0.232,0.467,-2.563,94.055,-48.218
-0.254,-0.037,-0.059,-17.151,93.384,-51.270
-0.111,0.117,-0.203,-0.305,77.209,-64.331
-0.114,0.010,0.140,52.490,59.204,-70.374
-0.005,-0.009,0.528,77.698,54.565,-73.547
-0.020,-0.085,0.955,82.336,55.420,-72.083
-0.022,-0.121,1.161,69.946,64.209,-68.726
0.074,0.004,0.951,39.246,72.266,-65.369
0.216,0.146,0.773,21.606,68.176,-59.143
0.335,0.266,0.699,26.245,58.289,-50.720
-0.045,0.152,0.531,33.752,49.316,-42.786
-0.206,0.241,0.474,47.058,32.776,-47.913
-0.235,0.066,1.091,88.196,13.855,-60.974
-0.134,-0.052,1.576,101.501,14.160,-67.383
-0.046,0.037,1.583,66.162,32.898,-67.261
0.040,0.186,1.259,34.851,48.767,-63.599
0.214,0.351,1.178,27.771,47.363,-58.960
0.189,0.312,1.295,47.180,33.875,-49.622
0.126,0.314,1.419,59.814,18.738,-39.917
0.116,0.327,1.534,59.448,-6.409,-30.701
0.049,0.286,1.689,61.157,-25.879,-22.156
0.011,0.276,1.858,55.542,-33.325,-16.357
-0.080,0.189,1.959,45.837,-33.691,-11.719
-0.054,0.276,1.787,26.733,-33.997,-9.277
-0.007,0.354,1.575,16.479,-32.654,-6.775
-0.001,0.380,1.416,19.531,-27.466,-1.953
0.010,0.355,1.389,29.175,-22.705,6.165
-0.110,0.167,1.605,43.945,-18.921,14.709
-0.177,0.051,1.785,50.354,-18.005,17.212
-0.191,-0.025,2.022,46.265,-24.475,15.503
-0.147,-0.075,2.072,37.231,-24.597,13.245
-0.067,0.044,1.763,16.602,-25.940,12.207
-0.005,0.112,1.490,11.780,-30.640,14.404
-0.006,0.050,1.516,25.452,-32.776,20.142
-0.072,-0.116,1.825,43.762,-32.593,24.414
-0.148,-0.191,1.937,46.387,-34.973,25.024
-0.186,-0.180,1.964,34.607,-36.682,22.217
-0.165,-0.235,2.036,29.297,-30.212,17.883
-0.078,-0.160,1.930,18.066,-26.855,12.939
0.002,-0.096,1.812,6.897,-27.588,10.864
0.041,-0.096,1.815,5.371,-25.024,11.658
0.046,-0.079,1.735,2.197,-22.888,13.916
0.067,-0.038,1.680,-3.235,-19.165,16.113
0.084,-0.060,1.664,-2.075,-12.634,19.653
0.032,-0.071,1.588,-2.563,-10.742,24.658
-0.043,-0.068,1.524,-1.770,-14.771,28.137
-0.115,-0.084,1.577,4.272,-21.606,30.090
-0.191,-0.164,1.726,10.193,-21.179,31.799
-0.214,-0.172,1.766,4.883,-17.578,28.687
-0.229,-0.141,1.715,-3.235,-13.306,24.353
-0.214,-0.148,1.739,-4.822,-10.986,18.433
-0.172,-0.104,1.682,-10.742,-9.766,13.916
-0.099,-0.056,1.538,-17.517,-3.906,11.780
0.002,0.011,1.415,-19.897,-1.160,11.780
0.054,0.024,1.431,-10.925,-3.906,14.099
0.039,0.007,1.546,0.854,-6.714,17.517
-0.043,-0.025,1.560,2.686,-5.920,21.545
-0.147,-0.014,1.406,-3.296,-3.357,24.475
-0.182,0.005,1.260,-3.967,1.770,24.048
-0.111,0.001,1.268,4.761,8.728,21.545
-0.063,-0.080,1.577,19.653,14.832,19.775
-0.038,-0.188,1.845,28.381,18.616,18.860
-0.047,-0.178,1.854,15.930,16.296,18.921
-0.082,-0.126,1.664,1.526,11.658,19.226
-0.132,-0.053,1.447,-2.747,4.272,19.104
-0.165,-0.035,1.429,6.714,-1.709,17.883
-0.138,-0.079,1.495,18.860,3.113,15.930
-0.073,-0.074,1.537,22.034,14.343,14.160
0.007,-0.123,1.709,26.672,23.071,12.146
0.072,-0.148,1.824,27.527,24.231,11.841
0.101,-0.134,1.775,18.372,23.315,12.939
0.107,-0.085,1.576,7.568,23.621,15.442
0.081,-0.044,1.372,2.686,21.973,19.653
0.035,-0.062,1.326,8.118,19.714,23.621
-0.022,-0.109,1.361,16.602,17.944,26.001
-0.057,-0.125,1.363,18.250,20.386,25.940
-0.037,-0.112,1.290,17.151,28.687,24.536
-0.015,-0.103,1.239,18.005,34.973,23.743
0.016,-0.089,1.187,20.691,37.720,24.170
0.034,-0.104,1.201,25.879,38.818,25.574
0.017,-0.124,1.227,30.823,34.119,27.588
0.002,-0.141,1.253,31.189,29.114,28.748
-0.005,-0.204,1.359,31.433,29.297,27.954
0.000,-0.230,1.371,25.757,30.518,25.940
0.009,-0.192,1.213,13.062,29.907,23.804
0.018,-0.139,1.019,5.798,29.053,22.034
0.038,-0.100,0.866,6.836,27.222,21.851
0.048,-0.060,0.746,12.390,24.658,23.560

-0.111,0.126,0.864,10.071,-10.437,2.869
-0.098,0.131,0.822,3.784,-14.465,3.845
-0.064,0.128,0.814,0.427,-19.226,6.104
-0.020,0.136,0.837,-4.517,-23.926,9.155
0.020,0.128,0.869,-11.902,-25.696,13.000
0.037,0.150,0.885,-20.264,-23.743,18.372
0.036,0.161,0.818,-29.846,-16.907,23.743
0.052,0.050,0.787,-31.799,-5.005,26.001
-0.086,0.094,0.186,-25.513,2.747,23.499
-0.149,0.158,0.076,1.099,1.831,17.883
-0.132,-0.070,0.503,47.302,-4.944,11.230
-0.137,-0.199,0.865,48.706,-22.156,4.456
-0.182,-0.223,0.869,18.860,-41.565,-1.892
-0.162,-0.220,0.649,-8.240,-50.110,-11.902
-0.068,-0.173,0.406,-23.621,-54.077,-24.170
0.014,-0.121,0.252,-28.442,-60.913,-32.349
0.099,-0.134,0.154,-26.611,-70.313,-35.217
0.190,-0.093,0.062,-25.513,-79.529,-31.921
0.311,-0.028,0.016,-22.766,-85.266,-25.879
0.371,-0.031,0.019,-16.663,-89.233,-18.860
0.272,-0.052,0.006,-14.648,-96.130,-9.949
0.156,-0.067,-0.066,-16.785,-98.877,-5.005
-0.187,-0.169,-0.172,-19.165,-95.581,-4.822
-0.262,-0.106,-0.266,-24.048,-79.834,-13.123
-0.049,-0.019,-0.270,-20.325,-52.856,-24.902
0.095,0.042,-0.139,-11.230,-35.583,-27.344
0.053,0.061,-0.041,-9.399,-26.428,-20.630
0.033,0.094,-0.101,-18.860,-9.888,-15.686
0.125,0.156,-0.141,-25.024,9.094,-13.306
0.208,0.166,-0.100,-21.362,18.066,-7.812
0.079,0.070,-0.192,-20.813,16.113,2.502
-0.272,0.011,-0.450,-27.100,11.230,12.634
-0.595,-0.022,-0.466,-17.944,6.226,9.033
-0.670,-0.119,-0.216,12.573,11.047,-6.226
-0.484,-0.084,-0.029,27.588,31.128,-25.024
-0.331,-0.016,0.065,22.644,53.589,-36.499
-0.202,0.049,0.038,14.648,71.472,-38.330
-0.235,0.039,-0.017,10.620,75.684,-36.438
-0.250,0.072,-0.230,10.681,70.313,-35.156
-0.319,0.077,-0.310,24.475,55.603,-37.903
-0.524,-0.030,-0.199,54.626,45.471,-43.396
-0.503,-0.062,0.219,85.083,52.185,-60.242
-0.364,-0.147,0.733,108.154,70.129,-78.308
-0.197,-0.125,1.059,98.816,90.942,-89.966
-0.027,-0.009,1.054,68.420,110.413,-97.168
0.062,0.160,0.771,44.617,123.413,-97.961
0.176,0.298,0.553,45.959,122.803,-95.886
0.256,0.265,0.819,78.735,99.854,-89.233
0.244,0.121,1.467,116.882,67.078,-78.003
0.178,0.018,1.938,122.070,39.673,-64.331
0.082,0.085,1.921,89.233,23.071,-50.659
-0.047,0.211,1.630,51.208,15.503,-40.222
-0.167,0.244,1.465,41.016,8.301,-36.194
-0.334,0.332,1.440,47.729,-5.432,-39.185
-0.275,0.243,1.772,68.359,0.000,-47.424
-0.146,0.268,1.857,66.650,4.639,-51.270
0.005,0.330,1.845,50.476,10.681,-49.194
-0.007,0.347,1.647,40.833,11.108,-40.344
0.075,0.441,1.419,37.476,12.451,-32.166
0.045,0.336,1.695,56.824,11.169,-23.010
-0.024,0.190,2.051,75.256,4.822,-12.573
-0.042,0.156,2.069,66.467,-2.869,-4.089
-0.100,0.129,2.036,54.626,-9.644,2.197
-0.164,0.080,1.922,49.744,-9.338,5.737
-0.151,0.097,1.805,45.105,-6.104,6.042
-0.194,0.012,1.990,51.208,-3.540,5.920
-0.182,-0.148,2.325,57.800,0.671,5.005
-0.184,-0.242,2.437,45.410,0.305,2.502
-0.145,-0.136,2.157,16.602,-4.944,-1.587
-0.061,-0.039,1.843,-1.343,-8.850,-3.723
0.033,0.023,1.611,-2.502,-12.512,-3.967
0.125,0.073,1.475,1.831,-14.160,-2.136
0.175,0.057,1.394,7.446,-9.888,3.906
0.224,0.040,1.378,11.414,-3.174,11.658
0.212,-0.002,1.454,17.090,-1.221,20.447
0.221,-0.038,1.513,21.667,-6.409,30.273
0.135,-0.041,1.589,22.156,-16.785,39.063
0.003,-0.123,1.682,23.254,-23.376,45.288
-0.152,-0.153,1.762,21.545,-29.846,47.058
-0.250,-0.191,1.828,18.311,-36.987,42.542
-0.309,-0.157,1.767,10.254,-38.391,34.729
-0.266,-0.089,1.646,-0.549,-32.104,25.879
-0.172,-0.038,1.507,-7.629,-25.696,21.240
-0.146,0.022,1.392,-10.315,-20.996,19.226
-0.043,0.049,1.359,-7.874,-12.878,18.066
-0.067,0.032,1.368,-4.395,-9.155,22.156
-0.073,-0.002,1.438,0.061,-5.981,24.902
-0.110,-0.069,1.484,3.296,-5.615,26.428
-0.172,-0.067,1.419,-0.977,-12.939,27.405
-0.230,-0.075,1.339,-4.944,-20.020,26.794
-0.292,-0.079,1.298,-4.517,-22.644,23.987
-0.282,-0.087,1.378,0.061,-21.912,18.555
-0.275,-0.090,1.431,1.221,-20.691,13.611
-0.218,-0.065,1.409,-4.761,-18.250,8.728
-0.161,-0.026,1.292,-13.916,-15.015,5.676
-0.106,0.005,1.129,-20.630,-11.414,4.822
-0.065,0.042,1.020,-19.348,-11.169,5.676
-0.079,0.024,1.042,-8.850,-18.555,8.545
-0.126,-0.024,1.175,3.601,-27.161,10.925
-0.190,-0.076,1.296,6.958,-28.015,11.292
-0.261,-0.110,1.224,-2.441,-21.362,10.071
-0.272,-0.057,1.042,-15.564,-12.756,6.287
-0.249,-0.040,0.945,-16.846,-4.883,2.075
-0.193,-0.035,0.923,-10.315,0.549,-1.282
-0.125,-0.008,0.902,-5.310,2.441,-2.686
-0.085,-0.005,0.960,0.305,0.183,-1.892
-0.076,-0.053,1.105,8.423,-2.014,-0.671
-0.066,-0.084,1.192,9.216,-4.395,0.122
-0.057,-0.070,1.159,1.099,-8.179,1.160
-0.074,-0.054,1.051,-7.324,-10.925,2.563
-0.085,-0.031,0.929,-11.780,-11.475,3.906
-0.089,-0.002,0.838,-11.047,-11.475,4.700
-0.116,-0.005,0.815,-5.432,-10.742,5.737
-0.119,-0.007,0.848,0.793,-8.057,6.104
-0.120,-0.023,0.922,5.432,-5.310,6.348
-0.110,-0.035,0.962,6.714,-2.991,6.836
-0.106,-0.030,0.967,4.272,-1.648,7.507
-0.148,-0.056,0.988,3.662,-0.854,8.057
-0.183,-0.066,0.997,3.479,-1.343,7.690

-0.168,0.143,0.915,21.057,-6.104,1.770
-0.141,0.151,0.940,14.771,-10.864,1.709
-0.130,0.157,0.944,7.935,-13.916,2.686
-0.139,0.155,0.936,2.808,-13.855,4.395
-0.112,0.127,0.889,-2.258,-11.475,6.592
-0.104,0.181,0.868,-9.277,-11.475,11.230
-0.098,0.198,0.778,-17.334,-9.949,15.747
-0.113,0.004,0.807,-12.146,0.244,15.259
0.009,-0.032,0.740,-13.733,7.141,12.268
-0.117,0.151,0.709,-21.912,0.183,14.099
-0.132,0.081,0.664,-20.996,-4.517,14.709
-0.138,0.059,0.650,-17.395,-5.737,13.184
-0.138,0.057,0.623,-16.907,-10.437,11.841
-0.166,0.048,0.595,-17.151,-14.282,10.010
-0.146,0.060,0.558,-16.785,-16.541,6.653
-0.117,0.070,0.556,-14.648,-21.057,3.296
-0.109,0.064,0.573,-12.390,-28.442,0.732
-0.087,0.061,0.578,-13.367,-34.363,-1.099
-0.046,0.067,0.613,-16.846,-36.316,-2.319
-0.029,0.036,0.652,-23.071,-34.363,-2.808
-0.048,0.016,0.557,-35.767,-31.189,-2.502
-0.101,0.040,0.308,-51.270,-30.762,-2.441
-0.116,0.144,0.010,-57.373,-35.645,-2.502
-0.107,0.226,-0.131,-45.593,-45.959,-1.038
-0.139,0.238,-0.050,-21.973,-56.458,1.709
-0.198,0.199,0.153,-1.343,-62.134,3.784
-0.203,0.193,0.276,3.296,-62.134,5.005
-0.203,0.187,0.333,-0.671,-60.181,6.470
-0.231,0.196,0.355,-4.333,-58.777,7.996
-0.233,0.212,0.313,-9.644,-57.556,8.911
-0.245,0.235,0.306,-12.756,-55.664,9.155
-0.245,0.220,0.324,-12.695,-50.842,8.667
-0.296,0.191,0.338,-13.489,-45.166,7.996
-0.406,0.161,0.283,-17.944,-37.476,5.981
-0.409,0.207,0.189,-22.278,-25.146,-1.099
-0.278,0.270,0.176,-16.785,-17.700,-10.071
-0.138,0.315,0.241,-5.127,-23.132,-15.198
-0.133,0.334,0.361,3.967,-34.973,-12.878
-0.211,0.299,0.462,8.362,-42.236,-7.935
-0.298,0.297,0.481,5.798,-40.527,-4.578
-0.340,0.305,0.441,0.610,-33.203,-3.296
-0.382,0.303,0.443,-1.648,-24.048,-2.136
-0.485,0.292,0.445,-4.395,-8.850,-2.380
-0.574,0.290,0.376,-11.841,14.221,-6.348
-0.485,0.330,0.314,-16.541,39.673,-17.029
-0.274,0.370,0.291,-13.794,56.946,-28.076
-0.076,0.421,0.300,-8.362,61.340,-32.593
0.064,0.440,0.391,-1.160,56.458,-28.687
-0.012,0.349,0.519,4.700,57.190,-20.691
-0.157,0.242,0.585,6.531,67.993,-15.503
-0.285,0.166,0.637,11.169,70.618,-14.465
-0.291,0.178,0.622,15.869,63.354,-15.198
-0.240,0.255,0.696,19.714,54.260,-16.602
-0.272,0.184,0.908,28.503,50.415,-18.921
-0.327,0.078,0.969,25.391,49.744,-21.545
-0.382,0.091,0.914,10.925,46.021,-27.832
-0.309,0.081,0.929,8.545,43.579,-38.513
-0.166,0.062,0.948,12.817,38.879,-48.950
-0.004,0.166,0.813,7.141,34.607,-54.138
0.150,0.259,0.684,5.005,40.344,-53.345
0.163,0.285,0.790,15.747,53.345,-48.828
0.062,0.174,0.951,27.771,67.261,-43.030
-0.042,0.136,0.924,24.902,74.036,-40.161
-0.060,0.187,0.807,18.066,76.599,-42.236
-0.047,0.193,0.799,23.376,74.829,-45.959
0.009,0.189,0.804,32.166,67.505,-47.485
0.083,0.223,0.783,35.828,58.350,-46.448
0.122,0.229,0.827,43.213,51.453,-42.480
0.126,0.193,0.888,52.124,45.898,-37.415
0.136,0.218,0.997,56.702,46.204,-33.936
0.092,0.171,1.217,62.378,51.636,-31.189
0.259,0.172,1.577,62.073,52.917,-28.320
-0.330,0.069,1.386,44.189,35.339,-19.531
-0.098,0.281,1.127,29.358,50.171,-33.020
0.006,0.316,0.972,32.471,41.504,-39.673
-0.053,0.387,0.857,42.542,7.812,-33.813
0.030,0.399,0.876,55.664,13.428,-31.189
-0.012,0.317,1.063,69.641,29.663,-27.710
-0.072,0.140,1.317,81.116,38.940,-24.475
-0.079,0.178,1.418,75.073,42.908,-22.034
-0.095,0.185,1.330,63.171,46.753,-20.264
-0.083,0.222,1.198,59.021,48.767,-20.020
-0.019,0.230,1.176,66.406,45.349,-19.836
0.075,0.193,1.403,82.153,37.415,-18.921
0.136,0.101,1.697,93.750,31.860,-15.320
0.109,0.056,1.750,85.938,25.269,-7.202
-0.010,0.079,1.625,68.970,19.714,-0.610
-0.062,0.078,1.448,64.392,18.494,1.038
-0.036,0.125,1.367,71.960,13.794,-0.549
0.006,0.123,1.388,89.294,7.446,-0.488
0.040,0.108,1.439,104.004,7.263,3.174
0.316,0.125,1.719,115.112,14.404,8.179
-0.172,-0.273,1.961,125.549,10.620,20.813
-0.146,-0.237,2.200,121.399,13.550,10.010
-0.047,-0.175,2.051,99.121,3.418,6.836
0.002,-0.079,1.821,82.458,-7.202,7.019
-1.086,1.190,1.380,71.960,0.854,3.113
1.273,3.426,4.000,166.199,-124.634,-36.255
-1.722,-4.000,4.000,680.237,-339.478,40.833
-0.118,-1.943,3.761,-27.710,164.185,28.076
-0.357,-1.580,-1.076,-575.012,238.708,9.583
-0.661,-0.130,-3.589,-718.872,104.858,37.170
-0.508,1.091,-4.000,-515.015,-20.996,-40.588
0.276,0.886,-3.375,-119.202,7.019,-64.758
0.325,-0.049,-1.477,197.205,9.460,-31.128
0.443,-0.736,0.311,362.366,11.597,-3.601
-0.040,-1.080,1.613,392.700,-25.085,2.502
-0.278,-0.875,2.339,299.744,-76.050,10.193
0.345,-0.371,2.437,175.842,-34.302,13.733
0.085,-0.265,2.083,69.824,32.410,18.860
0.209,-0.116,1.862,23.926,45.227,13.916
0.142,-0.331,1.745,25.635,0.061,9.949
0.223,-0.184,1.519,9.338,-19.470,7.507
0.502,-0.016,1.064,-21.057,-5.615,5.493
0.404,0.091,0.576,-35.095,7.874,19.104
0.112,-0.048,0.538,-22.400,18.982,33.752
-0.206,-0.352,1.470,3.296,6.104,35.461
-0.315,-0.115,1.261,-14.221,-16.785,25.085
-0.036,-0.020,0.932,-36.865,1.709,11.536

-0.408,0.060,0.913,9.277,-7.202,-2.930
-0.394,0.043,0.936,-4.761,-2.991,-1.099
-0.350,0.073,0.869,-20.508,4.700,0.305
-0.286,0.104,0.818,-31.433,12.634,1.892
-0.315,0.172,0.557,-36.926,19.043,5.005
-0.227,0.099,0.724,-31.372,27.527,5.371
-0.153,0.268,-0.008,-21.851,33.264,7.385
-0.236,0.058,0.255,34.485,29.968,9.094
-0.181,-0.024,0.644,63.171,24.902,7.324
-0.160,-0.072,0.961,50.110,18.250,7.385
-0.131,-0.071,0.912,19.409,20.447,7.507
-0.122,-0.045,0.657,-9.216,25.696,7.507
-0.121,-0.045,0.476,-20.081,26.001,7.690
-0.073,-0.052,0.422,-17.883,24.475,5.798
0.015,-0.036,0.431,-14.465,23.315,3.845
0.077,-0.032,0.453,-14.038,23.376,3.479
0.065,-0.042,0.407,-17.883,25.452,5.005
0.016,-0.024,0.299,-23.437,28.259,6.653
-0.002,-0.003,0.274,-23.132,29.846,6.042
0.022,-0.002,0.341,-16.785,28.809,3.418
0.106,-0.007,0.387,-13.550,22.522,1.343
0.167,0.031,0.395,-15.503,11.597,1.892
0.105,-0.012,0.459,-15.015,0.366,4.883
-0.028,-0.061,0.507,-15.198,-9.338,5.859
-0.089,-0.081,0.505,-18.921,-18.799,3.113
-0.141,-0.064,0.508,-21.912,-26.184,-2.563
-0.166,-0.057,0.480,-23.987,-31.189,-9.155
-0.196,-0.012,0.465,-26.184,-36.804,-15.259
-0.179,0.012,0.413,-27.466,-39.368,-21.484
-0.106,0.104,0.329,-30.823,-41.748,-26.001
-0.151,0.115,0.370,-29.663,-45.044,-26.123
-0.243,0.071,0.428,-29.724,-40.039,-26.062
-0.310,0.068,0.424,-40.405,-24.780,-28.381
-0.301,0.094,0.298,-54.260,-4.944,-33.142
-0.329,0.125,0.126,-63.599,9.277,-37.354
-0.369,0.157,-0.009,-65.430,19.287,-40.283
-0.371,0.205,-0.038,-59.998,31.189,-43.030
-0.341,0.212,0.094,-49.561,46.509,-45.044
-0.313,0.203,0.272,-43.579,67.200,-47.546
-0.244,0.239,0.338,-50.964,91.797,-51.514
-0.135,0.301,0.250,-67.749,111.633,-54.016
-0.054,0.364,0.126,-78.430,121.399,-54.260
-0.059,0.378,-0.030,-76.843,120.056,-53.223
-0.244,0.350,-0.178,-64.270,107.300,-51.758
-0.618,0.227,-0.270,-37.598,85.327,-53.589
-0.815,0.155,-0.143,1.038,56.580,-68.604
-0.686,0.147,0.242,46.143,38.574,-91.309
-0.466,0.195,0.672,72.021,44.250,-108.643
-0.300,0.276,0.943,67.871,72.266,-116.455
-0.200,0.352,0.958,47.424,105.469,-117.859
-0.068,0.469,0.822,27.954,130.432,-116.577
-0.023,0.483,0.763,29.358,130.432,-113.342
0.052,0.495,0.786,45.654,105.286,-110.291
0.189,0.534,0.912,69.397,65.613,-108.887
0.352,0.561,1.178,97.046,24.597,-104.675
0.464,0.609,1.292,108.948,3.906,-92.407
0.467,0.698,1.145,100.159,4.761,-72.876
0.315,0.685,1.141,96.436,13.123,-52.673
0.088,0.531,1.265,105.225,24.719,-37.781
0.005,0.454,1.311,102.173,39.795,-32.288
0.115,0.441,1.343,95.398,47.974,-32.104
0.206,0.429,1.483,98.267,35.645,-30.945
0.318,0.437,1.542,101.257,9.583,-24.780
0.314,0.522,1.483,94.482,-18.066,-11.475
-0.160,0.415,1.396,90.210,-37.537,6.775
0.427,0.499,1.401,97.595,-4.883,6.714
-0.027,0.243,1.592,110.535,1.770,6.958
-0.070,0.295,1.519,91.980,-10.010,16.113
-0.085,0.234,1.402,79.468,10.010,13.184
-0.039,0.258,1.237,75.012,16.235,11.108
0.071,0.261,1.238,78.430,14.648,8.606
0.120,0.171,1.438,95.215,6.348,8.667
0.119,0.055,1.643,103.394,-0.854,11.963
0.054,-0.001,1.602,88.196,6.653,17.090
-0.069,-0.040,1.327,67.383,19.104,20.203
-0.105,-0.051,1.110,63.293,20.447,18.677
-0.061,-0.051,1.097,78.979,10.498,14.771
0.255,-0.020,1.436,97.778,5.127,12.085
0.045,-0.294,1.589,109.741,12.268,12.024
0.138,-0.276,1.924,111.023,32.227,-0.427
0.136,-0.330,2.070,98.450,25.940,-0.305
0.261,-0.229,1.989,72.144,19.470,0.854
0.234,-0.133,1.679,40.588,16.052,7.263
0.111,-0.167,1.583,37.170,11.536,12.146
-0.026,-0.255,1.601,56.030,-7.568,11.719
0.101,-0.167,1.542,63.843,-25.574,7.507
0.228,-0.073,1.598,64.758,-26.062,4.822
0.199,-0.170,1.734,72.388,-16.846,7.324
0.053,-0.244,1.817,66.895,-14.221,12.451
-0.059,-0.279,1.725,48.584,-12.695,15.198
-0.059,-0.224,1.489,31.311,-7.568,12.939
-0.020,-0.181,1.296,26.550,-10.254,10.315
0.004,-0.182,1.204,34.851,-16.052,8.423
0.032,-0.234,1.140,44.922,-21.851,7.385
0.065,-0.260,1.111,50.598,-27.832,7.263
0.041,-0.340,1.902,67.749,-46.936,7.080
-0.355,-0.944,3.612,122.925,-143.494,0.427
0.107,0.099,2.440,-19.775,-113.892,-8.911
0.174,0.565,-0.093,-167.786,-30.579,-4.211
-0.406,-0.009,0.472,-69.580,-17.273,3.235
-0.274,-0.402,1.968,-25.330,28.625,2.014
-0.162,0.096,0.922,-63.354,31.128,-5.493
-0.127,-0.210,1.107,-42.725,11.597,-5.188
-0.093,-0.053,0.948,-36.621,16.296,-5.005
-0.103,-0.198,1.001,-33.691,20.386,-3.113
-0.104,-0.185,0.967,-33.020,28.564,-1.465
-0.081,-0.165,1.002,-36.255,36.499,-1.282
-0.012,-0.091,1.057,-39.185,43.091,-3.235
0.109,-0.010,1.010,-39.734,39.307,-4.211
0.074,-0.013,1.001,-29.663,23.743,-1.526
0.055,-0.009,0.984,-17.334,11.414,-0.244
0.034,-0.000,0.962,-8.850,3.662,0.793
0.009,-0.019,0.981,-1.343,0.061,1.709
0.001,-0.038,0.979,2.808,-0.671,1.953
0.005,-0.055,0.982,4.395,-0.732,2.686
0.017,-0.049,0.979,3.479,-0.366,3.967
0.018,-0.059,0.981,3.113,0.000,4.822
0.026,-0.062,0.981,2.686,0.122,4.761
0.026,-0.059,0.975,2.563,0.122,4.150

-0.047,-0.124,0.767,3.235,-0.854,-4.456
0.023,-0.100,0.685,-10.254,-6.714,-5.005
0.094,-0.094,0.595,-16.602,-16.785,-5.188
0.104,-0.140,0.426,-20.325,-26.306,-4.761
0.064,-0.271,0.408,-11.292,-32.715,-4.578
0.263,-0.308,0.177,4.333,-31.250,-8.118
0.094,0.029,0.278,0.061,-43.091,4.395
0.092,-0.200,0.408,-2.991,-49.133,11.414
0.025,-0.193,0.444,-12.939,-27.893,11.475
0.089,-0.133,0.357,-36.255,-8.606,11.841
0.176,-0.054,0.186,-59.448,3.845,13.062
0.218,-0.029,0.074,-68.848,6.714,16.113
0.187,-0.058,0.081,-67.932,0.977,19.714
0.151,-0.074,0.130,-68.298,-2.625,20.813
0.103,-0.099,0.157,-71.289,-4.150,20.020
0.026,-0.049,0.146,-76.111,-8.728,17.090
0.047,-0.013,0.086,-79.468,-17.395,10.559
0.128,0.062,0.014,-77.576,-34.302,3.906
0.205,0.106,0.018,-67.261,-60.852,-0.122
0.240,0.105,0.094,-53.650,-88.989,-2.258
0.131,0.015,0.145,-45.288,-109.131,-0.793
-0.005,0.001,0.103,-48.706,-112.061,0.183
-0.020,0.064,0.099,-52.063,-96.497,-2.197
-0.036,0.098,0.212,-47.424,-72.449,-3.662
-0.139,0.161,0.374,-45.288,-53.162,-3.662
-0.124,0.214,0.287,-53.528,-40.283,-5.066
-0.131,0.332,0.075,-64.880,-39.429,-4.456
-0.193,0.372,-0.048,-62.256,-40.283,-1.892
-0.223,0.413,-0.038,-51.880,-28.076,-1.221
-0.262,0.375,0.104,-38.086,-6.348,-0.854
-0.403,0.321,0.356,-28.687,18.433,1.526
-0.557,0.196,0.500,-27.954,43.884,2.136
-0.641,0.208,0.426,-38.391,62.500,-0.610
-0.663,0.251,0.360,-42.847,69.275,-5.615
-0.792,0.191,0.492,-29.419,68.359,-11.597
-0.759,0.154,0.543,-20.081,67.383,-24.414
-0.703,0.193,0.483,-22.888,64.819,-41.199
-0.652,0.204,0.221,-27.771,63.599,-54.932
-0.494,0.368,-0.057,-28.687,67.322,-66.772
-0.242,0.475,0.033,-1.465,75.928,-74.951
-0.088,0.423,0.534,42.542,89.294,-74.463
-0.036,0.307,1.149,70.251,107.727,-67.322
-0.177,0.107,1.567,68.848,124.695,-57.190
-0.399,0.010,1.509,36.865,130.737,-52.551
-0.454,0.077,1.291,7.263,118.164,-59.021
-0.419,0.117,1.260,9.338,90.881,-72.144
-0.334,0.178,1.229,18.616,62.439,-81.543
-0.185,0.315,1.027,15.747,42.786,-84.167
-0.050,0.429,0.896,18.066,32.776,-81.116
0.088,0.458,0.811,33.813,31.006,-75.439
0.243,0.553,0.782,47.485,32.410,-67.322
0.249,0.500,1.171,69.885,37.170,-54.382
0.116,0.215,1.665,93.384,42.847,-40.894
0.016,0.188,1.608,70.496,46.692,-31.250
-0.018,0.283,1.282,38.147,43.823,-28.442
0.173,0.348,1.316,44.067,30.518,-29.602
-0.084,0.281,1.297,53.223,4.639,-21.790
0.135,0.445,1.020,49.500,5.554,-15.503
0.081,0.401,1.057,72.083,21.790,-15.991
-0.065,0.241,1.286,99.915,16.846,-10.254
-0.054,0.172,1.568,104.614,14.038,-5.676
-0.177,0.032,1.988,104.187,12.390,-5.737
-0.192,-0.082,2.094,88.013,30.212,-11.475
-0.018,0.047,1.788,51.392,48.218,-19.897
0.228,0.186,1.505,37.170,47.485,-21.606
0.327,0.200,1.462,50.903,27.222,-14.160
0.326,0.178,1.472,64.392,5.798,-1.892
0.245,0.110,1.522,68.481,4.883,9.766
0.040,-0.026,1.495,69.763,8.118,19.897
-0.086,-0.111,1.450,70.801,5.676,23.560
-0.130,-0.150,1.527,75.623,6.836,19.958
0.073,-0.112,1.698,82.397,8.057,17.334
-0.177,-0.324,1.537,77.393,9.338,19.348
0.027,-0.144,1.588,76.355,28.137,2.930
0.051,-0.235,1.748,88.135,23.560,3.784
0.149,-0.226,1.952,93.140,23.376,1.892
0.147,-0.242,2.020,88.379,12.634,4.944
0.188,-0.173,1.917,74.463,2.014,8.850
0.199,-0.143,1.774,58.899,-1.404,14.038
0.106,-0.211,1.620,50.598,10.010,16.968
0.057,-0.266,1.582,56.213,10.803,15.503
0.735,0.007,2.695,81.726,-24.414,16.724
0.162,-0.315,3.415,169.617,-182.129,33.447
-0.037,0.064,3.503,105.164,-201.477,20.752
-0.578,0.057,2.237,-60.059,-41.199,28.931
-0.876,0.320,0.392,-161.499,104.797,13.428
-0.678,-0.546,1.787,-36.987,102.661,-21.118
-0.236,-0.027,1.213,-23.254,73.425,-33.936
-0.222,-0.428,0.860,-44.739,49.072,-24.414
-0.150,-0.425,1.029,-20.020,17.273,-10.071
0.027,-0.267,1.027,-41.321,3.113,5.493
0.045,-0.274,1.044,-29.846,2.625,7.324
0.003,-0.334,0.942,-20.630,-0.244,5.798
0.069,-0.210,1.009,-29.236,5.676,2.197
0.177,-0.014,0.941,-39.185,16.174,-1.282
0.167,0.063,0.945,-28.931,10.193,1.709
0.085,0.034,0.965,-16.052,4.883,6.104
0.047,0.042,0.952,-12.085,4.578,8.545
-0.023,0.033,0.959,-9.216,4.089,9.033
-0.010,0.016,0.995,-5.249,2.930,8.484
-0.025,0.008,0.969,-3.052,1.282,7.385
-0.001,-0.023,0.985,-0.183,1.282,5.737
0.025,-0.051,0.974,1.526,1.587,3.967
0.034,-0.073,0.976,3.235,1.038,2.197
0.032,-0.089,0.984,4.028,0.793,1.587
0.036,-0.080,0.994,3.174,0.793,2.136
0.029,-0.054,0.989,1.282,0.061,3.113
0.031,-0.036,0.988,0.122,0.244,4.578
0.040,-0.025,0.977,-0.977,0.183,5.432
0.044,-0.010,0.970,-0.977,0.183,5.920
0.053,-0.012,0.958,0.854,0.000,5.554
0.054,-0.033,0.972,3.357,-0.610,4.517
0.048,-0.043,0.976,4.578,-1.343,3.296
0.039,-0.043,0.974,4.578,-1.343,2.258
0.026,-0.042,0.982,4.272,-1.404,1.587
0.013,-0.034,0.980,4.517,-1.526,1.282
0.013,-0.031,0.981,4.883,-1.526,1.282
0.015,-0.030,0.978,5.249,-1.648,1.160
0.018,-0.037,0.988,5.676,-1.709,1.221

-0.066,-0.007,0.863,13.184,-4.944,-1.099
-0.050,-0.009,0.842,5.737,-3.174,2.502
-0.048,-0.001,0.828,-1.221,-1.221,7.202
-0.053,-0.010,0.845,-9.399,1.587,11.536
-0.069,-0.019,0.880,-21.362,7.385,14.771
-0.055,0.004,0.800,-36.682,16.052,17.456
0.027,-0.084,0.804,-40.649,23.071,20.569
-0.166,0.118,0.386,-32.104,24.475,24.536
-0.071,-0.146,0.254,-15.137,27.405,23.315
-0.127,-0.161,0.514,4.822,17.151,19.714
-0.081,-0.151,0.552,1.099,0.122,15.015
-0.007,-0.127,0.465,-14.526,-13.611,12.573
0.120,-0.084,0.356,-21.240,-21.301,11.108
0.232,-0.070,0.277,-26.367,-26.917,13.489
0.281,-0.058,0.251,-30.823,-26.489,20.081
0.334,-0.055,0.240,-37.842,-15.259,27.832
0.342,-0.060,0.205,-46.021,2.136,35.339
0.297,-0.109,0.156,-51.270,16.907,43.335
0.233,-0.118,0.107,-54.321,24.658,48.950
0.181,-0.111,0.064,-54.504,27.222,50.232
0.166,-0.114,0.035,-50.293,20.752,47.791
0.141,-0.102,0.062,-43.884,3.479,43.640
0.100,-0.100,0.191,-36.377,-19.775,38.574
0.089,-0.162,0.241,-35.706,-41.748,32.410
0.129,-0.146,0.085,-47.974,-60.303,26.917
0.167,-0.107,-0.095,-58.411,-76.050,23.499
0.192,-0.103,-0.233,-57.312,-85.693,22.949
0.138,-0.051,-0.343,-51.270,-88.745,25.574
0.092,0.055,-0.366,-44.067,-85.754,28.015
0.031,0.113,-0.282,-31.372,-77.637,29.114
-0.040,0.115,-0.192,-20.020,-67.383,29.846
-0.082,0.144,-0.244,-22.034,-55.847,29.602
-0.101,0.190,-0.364,-27.710,-45.776,28.137
-0.145,0.210,-0.364,-20.508,-39.368,26.184
-0.239,0.174,-0.184,-3.479,-31.128,23.315
-0.330,0.158,0.053,9.216,-14.526,18.066
-0.401,0.125,0.248,11.353,4.822,10.498
-0.445,0.105,0.321,2.563,24.597,1.160
-0.482,0.136,0.252,-12.085,43.701,-8.423
-0.500,0.192,0.086,-23.010,60.303,-19.165
-0.476,0.242,-0.039,-23.376,74.219,-29.785
-0.415,0.293,-0.055,-12.512,88.135,-40.649
-0.252,0.400,0.062,1.770,104.919,-51.880
-0.145,0.418,0.295,18.555,121.948,-57.434
-0.147,0.349,0.514,31.067,137.085,-55.481
-0.274,0.278,0.769,39.673,143.188,-54.504
-0.327,0.137,1.046,52.612,147.156,-59.692
-0.201,0.114,1.326,60.486,150.513,-72.327
-0.097,0.147,1.579,62.439,143.311,-84.290
-0.115,0.140,1.719,59.509,121.277,-90.942
-0.046,0.208,1.809,52.551,95.276,-98.328
0.083,0.221,1.811,44.067,75.134,-100.403
0.126,0.242,1.630,28.748,52.612,-94.116
0.079,0.286,1.292,12.390,30.457,-84.106
0.097,0.302,1.014,19.165,19.165,-79.224
0.264,0.390,0.984,45.410,15.625,-78.369
0.412,0.349,1.343,84.717,11.353,-72.021
0.795,0.283,2.122,113.525,-7.202,-53.040
0.034,0.065,2.074,103.455,-41.016,-19.165
0.367,0.159,2.179,84.717,9.033,-26.917
0.061,0.042,1.894,69.092,-3.052,-16.907
-0.023,0.151,1.588,54.321,-20.203,-9.216
-0.219,0.092,1.562,59.937,-28.503,-7.996
-0.275,-0.001,1.586,78.247,-26.855,-11.780
-0.180,0.070,1.634,86.548,-12.939,-23.987
-0.033,0.063,1.848,98.206,14.221,-36.194
0.150,0.006,2.144,107.849,33.936,-42.053
0.229,-0.023,2.288,101.868,26.428,-35.645
0.394,0.045,2.209,85.144,13.733,-25.391
0.310,0.064,1.903,65.063,13.672,-13.367
0.242,0.015,1.615,60.242,12.817,-3.174
0.245,0.000,1.556,72.876,0.977,5.798
0.112,-0.133,1.753,92.285,-10.620,14.343
0.029,-0.219,1.984,100.708,-11.292,16.357
-0.073,-0.337,2.172,96.802,2.258,12.573
-0.078,-0.366,2.122,78.552,13.977,5.371
-0.044,-0.298,1.927,55.847,15.381,-2.563
0.028,-0.285,1.823,46.387,20.020,-9.155
0.136,-0.300,1.839,45.959,27.344,-14.709
0.362,-0.208,1.844,43.030,26.245,-15.808
0.351,-0.181,1.814,34.668,17.578,-8.728
0.307,-0.202,1.634,21.729,20.325,-0.183
0.310,-0.103,1.383,7.019,26.733,7.080
0.189,-0.222,1.156,4.578,23.926,16.541
0.075,-0.208,0.985,13.062,24.963,13.855
0.015,-0.254,0.908,27.100,26.855,9.277
0.016,-0.291,0.950,41.626,21.545,4.944
0.152,-0.373,1.175,51.025,19.226,4.517
0.295,-0.241,1.761,67.688,-3.479,2.930
-0.006,-0.794,3.342,-4.578,-77.759,12.451
0.217,0.371,1.115,-216.003,-54.932,54.199
-0.259,-0.176,0.977,-159.241,2.502,17.639
-0.409,0.281,1.354,-169.434,-34.302,25.452
-0.685,0.358,1.270,-80.688,-109.741,32.959
-0.549,-0.056,1.243,-5.005,-68.115,13.916
-0.039,0.218,0.790,-16.724,4.395,-22.827
-0.065,0.026,1.049,-1.770,-2.747,-16.174
-0.072,-0.068,1.001,9.521,-3.540,-12.634
0.088,-0.034,0.954,-2.258,3.296,-18.127
0.065,-0.090,0.998,-0.427,-2.075,-15.015
0.064,-0.108,0.986,-0.305,-2.808,-11.414
0.081,-0.115,0.967,-3.235,-1.953,-8.301
0.068,-0.127,0.977,-0.916,-3.906,-2.747
0.068,-0.110,0.976,-1.831,-3.845,1.770
0.015,-0.088,1.000,-1.709,-4.333,6.348
0.012,-0.038,0.979,-3.540,-2.869,8.057
0.013,-0.021,0.981,-3.357,-1.099,8.423
0.021,-0.019,0.965,-0.366,0.427,7.996
0.026,-0.040,0.971,2.380,1.282,7.324
0.029,-0.052,0.974,4.211,0.916,7.263
0.035,-0.064,0.973,4.395,0.793,7.324
0.047,-0.060,0.982,3.723,0.244,7.629
0.056,-0.053,0.975,2.380,-0.305,7.751
0.049,-0.044,0.979,1.709,-0.854,7.751
0.047,-0.035,0.979,2.014,-0.916,7.507
0.052,-0.033,0.976,3.174,-0.488,7.874
0.049,-0.030,0.977,4.211,-0.061,8.728
0.050,-0.041,0.965,5.371,0.732,9.399
0.032,-0.050,0.975,6.226,0.610,10.193

-0.245,0.081,0.843,16.785,-9.216,-1.282
-0.258,0.044,0.848,7.935,-8.179,-2.625
-0.253,0.070,0.785,-5.493,-8.057,-2.686
-0.234,0.119,0.727,-15.808,-10.071,-2.197
-0.153,0.177,0.665,-15.808,-10.315,-0.916
-0.064,0.150,0.627,-8.728,-12.939,4.639
-0.101,0.024,0.692,3.235,-18.799,10.010
-0.010,0.026,0.285,7.019,-18.311,15.137
-0.112,0.009,0.387,28.992,-23.743,17.090
-0.016,-0.135,0.712,38.757,-26.123,16.663
0.090,-0.103,0.780,18.616,-20.020,14.465
0.185,-0.110,0.699,-4.883,-14.648,15.991
0.242,-0.104,0.533,-23.987,-13.000,19.836
0.232,-0.118,0.407,-34.119,-15.869,24.170
0.206,-0.129,0.330,-36.804,-20.752,27.100
0.205,-0.106,0.270,-38.330,-25.757,27.466
0.206,-0.098,0.224,-38.330,-32.227,27.283
0.181,-0.093,0.178,-39.063,-38.940,27.466
0.155,-0.070,0.110,-40.527,-44.128,27.527
0.121,-0.055,0.073,-39.307,-50.232,28.198
0.104,-0.067,0.114,-34.058,-58.105,28.381
0.077,-0.090,0.196,-30.029,-64.331,28.503
0.073,-0.114,0.224,-33.691,-64.636,28.748
0.096,-0.090,0.181,-42.603,-60.181,29.907
0.086,-0.087,0.105,-49.744,-54.260,33.569
0.002,-0.072,0.040,-54.443,-46.509,37.109
-0.035,-0.080,-0.078,-55.542,-39.001,37.659
-0.065,-0.032,-0.153,-52.124,-42.114,35.706
-0.091,0.015,-0.116,-39.307,-52.124,34.363
-0.108,0.019,0.027,-24.475,-59.387,32.471
-0.149,0.005,0.120,-18.860,-59.448,30.701
-0.208,0.045,0.136,-25.574,-50.537,28.931
-0.230,0.088,0.127,-33.813,-30.334,25.146
-0.263,0.148,0.074,-41.626,-6.165,21.118
-0.400,0.192,-0.068,-49.988,14.587,15.747
-0.407,0.310,-0.232,-52.856,29.907,5.310
-0.253,0.400,-0.302,-38.940,37.048,-6.836
-0.112,0.463,-0.250,-13.550,31.921,-12.146
-0.213,0.404,-0.103,11.902,19.592,-6.653
-0.426,0.279,0.086,30.029,16.846,-0.183
-0.586,0.173,0.320,37.659,30.151,-0.366
-0.687,0.108,0.482,34.180,53.345,-6.409
-0.781,0.069,0.443,17.700,80.200,-15.686
-0.755,0.145,0.219,-3.967,106.079,-28.748
-0.519,0.260,0.098,-9.094,127.502,-44.312
-0.244,0.325,0.293,8.484,143.799,-56.458
-0.005,0.292,0.594,29.053,157.837,-60.303
0.002,0.239,0.840,35.706,164.001,-57.556
-0.220,0.146,0.906,34.912,158.142,-54.382
-0.367,0.170,0.911,36.499,140.259,-60.120
-0.406,0.191,0.924,51.086,112.488,-70.923
-0.282,0.283,1.040,69.824,85.266,-81.665
-0.129,0.285,1.222,85.205,69.580,-83.557
-0.089,0.272,1.400,85.388,58.655,-77.637
-0.208,0.192,1.493,72.876,61.890,-68.359
-0.322,0.165,1.297,51.453,80.688,-61.768
-0.312,0.279,1.069,37.170,92.590,-63.904
-0.182,0.350,1.180,57.556,88.318,-72.449
0.039,0.379,1.558,90.576,74.646,-78.430
0.521,0.418,1.977,101.929,59.021,-76.050
-0.106,0.373,1.828,85.205,19.470,-58.472
0.540,0.526,1.571,71.045,22.644,-52.856
0.202,0.488,1.475,84.717,16.296,-47.913
0.170,0.446,1.500,94.177,10.925,-32.593
0.088,0.325,1.573,98.328,40.344,-26.794
-0.015,0.218,1.649,97.961,55.176,-18.738
-0.036,0.106,1.937,108.948,58.411,-16.113
-0.043,-0.053,2.300,128.601,47.119,-21.851
0.076,-0.059,2.371,121.399,28.992,-22.949
0.106,0.027,2.229,97.961,7.080,-14.893
0.130,-0.016,2.098,90.820,-2.258,-6.226
0.171,-0.045,1.980,90.393,-10.559,0.183
0.085,-0.119,1.980,91.614,-20.447,8.667
-0.067,-0.272,2.015,95.093,-16.846,13.000
-0.212,-0.297,1.821,83.679,-6.470,11.414
-0.235,-0.249,1.663,71.594,9.827,4.028
-0.151,-0.286,1.737,77.026,35.278,-5.188
0.040,-0.279,1.905,84.045,49.194,-12.512
0.185,-0.334,2.220,87.769,39.917,-9.094
0.113,-0.422,2.330,83.923,17.090,-4.944
0.166,-0.303,2.068,56.885,-2.014,-2.136
0.126,-0.201,1.650,23.682,-5.249,2.319
-0.001,-0.122,1.291,4.822,14.465,2.441
-0.020,-0.131,1.146,8.606,29.602,2.502
0.099,-0.107,1.211,28.809,37.354,-1.465
0.019,-0.235,1.357,45.044,43.030,-1.343
-0.144,-0.376,1.521,50.781,39.185,0.061
-0.143,-0.451,1.524,48.401,20.447,-1.831
0.199,-1.319,3.417,31.799,-3.540,-3.296
0.021,0.622,1.715,-147.827,-69.214,10.437
0.376,0.391,1.793,-196.411,-91.125,24.231
-0.185,0.614,1.214,-62.012,-101.074,-1.221
-0.062,0.426,1.070,-32.837,-42.908,6.470
-0.184,0.050,0.884,12.573,-14.771,4.028
-0.404,-0.239,1.005,-3.418,0.427,6.958
-0.166,-0.158,1.000,1.099,14.832,-5.005
-0.086,-0.233,0.959,1.343,7.507,-10.803
-0.109,-0.250,0.918,-3.296,1.099,-5.066
0.004,-0.160,1.003,-13.733,5.554,-6.836
0.079,-0.156,0.977,-11.536,3.906,-8.179
0.101,-0.137,0.941,-8.362,0.916,-7.751
0.065,-0.125,1.001,-6.287,3.479,-6.836
0.051,-0.122,0.973,-3.418,3.296,-5.493
0.028,-0.124,0.978,-1.770,1.465,-3.662
0.030,-0.105,0.983,-2.136,1.648,-2.014
0.024,-0.096,0.977,-2.563,1.160,-0.244
0.011,-0.088,0.978,-1.892,1.038,1.221
0.010,-0.081,0.982,-1.404,1.587,2.136
0.009,-0.073,0.977,-0.916,1.770,2.747
-0.004,-0.044,0.975,-1.953,1.343,3.235
-0.011,-0.033,0.972,-1.587,1.221,3.784
-0.004,-0.039,0.968,-0.061,1.648,4.395
0.006,-0.054,0.976,1.526,2.258,4.761
0.013,-0.070,0.979,2.747,2.625,4.883
0.028,-0.080,0.986,2.930,2.625,4.639
0.029,-0.087,0.983,2.991,1.709,4.150
0.011,-0.080,0.975,2.502,0.488,3.845
0.010,-0.085,0.988,1.831,0.610,4.150
-0.001,-0.076,0.982,0.916,0.122,4.578

-0.084,-0.087,0.642,4.456,-4.150,2.625
-0.046,-0.089,0.584,0.671,-4.517,2.930
0.017,-0.101,0.495,-5.615,-7.141,5.554
0.138,-0.107,0.354,-13.489,-11.353,10.559
0.238,-0.240,0.415,-12.390,-20.264,17.029
0.146,-0.140,0.058,-9.521,-32.104,21.606
0.196,-0.026,-0.115,-8.545,-44.983,27.405
0.163,-0.336,0.126,14.709,-54.443,29.663
0.196,-0.277,0.177,4.822,-51.270,27.954
0.323,-0.228,0.121,-16.174,-45.837,26.855
0.357,-0.239,0.084,-25.330,-47.363,29.541
0.320,-0.300,0.088,-28.137,-55.298,33.203
0.324,-0.317,0.111,-33.752,-54.749,35.706
0.311,-0.331,0.159,-40.588,-48.523,37.354
0.241,-0.349,0.228,-46.936,-47.913,38.818
0.054,-0.411,0.293,-55.237,-53.528,39.673
-0.049,-0.394,0.277,-69.031,-56.396,35.522
-0.041,-0.322,0.209,-83.008,-55.603,26.489
-0.077,-0.286,0.060,-92.468,-56.885,18.860
-0.084,-0.186,-0.089,-101.257,-58.777,12.329
0.065,-0.100,-0.181,-103.027,-54.260,6.042
0.268,0.105,-0.094,-95.703,-47.119,7.141
0.364,0.186,0.143,-84.595,-41.626,19.958
0.225,0.171,0.301,-87.463,-30.212,40.649
-0.163,0.099,0.249,-106.445,-12.512,57.373
-0.640,0.010,0.000,-124.329,-0.793,57.678
-1.148,-0.064,-0.415,-133.240,2.197,39.063
-0.872,0.225,-0.624,-121.948,7.751,-1.953
-0.276,0.462,-0.428,-77.576,24.414,-37.964
-0.060,0.405,-0.001,-34.119,34.851,-41.321
-0.172,0.329,0.119,-33.020,49.194,-27.527
-0.230,0.455,-0.073,-56.458,81.299,-15.991
-0.142,0.498,-0.180,-59.753,114.746,-8.301
-0.276,0.447,-0.301,-45.166,132.751,5.859
-0.755,0.347,-0.526,-31.799,133.667,14.832
-1.046,0.271,-0.384,1.892,129.272,-2.136
-0.862,0.124,0.202,58.899,131.592,-38.696
-0.510,0.154,0.810,92.285,147.278,-70.374
-0.246,0.198,1.168,89.172,169.983,-84.961
-0.080,0.331,1.138,59.509,186.096,-87.952
0.024,0.466,0.945,39.978,185.242,-85.632
0.182,0.551,0.889,49.194,166.077,-81.909
0.282,0.509,1.092,75.195,138.855,-74.585
0.123,0.344,1.265,95.581,116.089,-64.758
0.093,0.357,1.390,100.220,91.736,-61.462
0.032,0.263,1.632,108.459,71.472,-62.439
0.015,0.252,1.635,98.633,69.580,-62.195
0.063,0.375,1.370,71.472,77.881,-63.110
0.274,0.481,1.104,60.425,86.975,-61.584
0.336,0.549,1.030,72.510,73.914,-52.185
0.330,0.423,1.200,101.135,50.415,-37.842
0.446,0.338,1.437,124.329,31.128,-26.428
0.255,0.239,1.705,132.019,9.949,-11.902
0.073,0.070,1.851,131.775,6.592,-3.174
0.012,0.062,1.862,119.873,15.442,-2.563
0.094,0.063,2.021,114.990,4.333,-2.563
0.011,0.056,2.066,114.441,-10.559,1.526
0.010,0.017,2.026,110.840,-4.272,-0.244
-0.028,-0.037,1.907,105.347,6.714,-2.869
0.031,-0.057,1.951,101.440,2.991,-3.235
0.167,-0.109,2.116,106.140,-0.854,-1.831
0.172,-0.157,2.257,108.276,-8.911,1.648
0.244,-0.163,2.393,109.314,-23.376,1.892
0.220,-0.225,2.470,104.675,-35.950,8.240
0.242,-0.231,2.417,91.858,-46.204,14.648
0.217,-0.204,2.218,74.890,-55.908,19.897
0.078,-0.234,2.025,65.308,-61.340,27.649
-0.115,-0.323,2.000,67.261,-60.303,34.485
-0.263,-0.405,2.133,74.524,-54.993,32.043
-0.205,-0.450,2.381,72.998,-40.161,24.963
-0.447,-0.780,2.980,106.445,-89.966,16.174
-0.643,-2.075,4.000,170.227,-268.005,1.953
-0.398,0.495,1.509,-171.875,-166.687,-34.546
0.123,1.523,-0.387,-234.070,-106.995,-80.078
-0.022,0.610,0.181,-41.260,-46.753,-27.954
-0.403,-0.559,1.060,59.631,36.438,11.902
-0.156,-0.743,1.271,26.245,71.960,-0.732
-0.042,-0.582,0.938,-25.696,43.274,-13.245
-0.033,-0.294,0.287,-71.167,26.062,-14.221
-0.038,0.004,0.005,-70.862,31.250,-6.836
-0.084,-0.047,0.263,-2.502,37.170,5.066
-0.337,-0.466,0.965,66.162,49.500,9.583
-0.371,-0.788,2.503,84.229,50.537,0.793
0.092,-0.160,1.485,-9.399,76.233,-14.404
0.187,0.037,0.706,-41.199,37.781,-15.564
0.103,-0.133,0.865,0.061,-2.380,-6.104
0.080,-0.108,0.845,-8.667,18.250,-1.892
0.019,-0.068,1.125,-18.616,29.724,3.967
-0.042,-0.038,1.160,-16.602,28.564,8.179
-0.076,-0.058,1.023,-11.292,15.137,8.667
-0.078,-0.048,0.915,-9.460,6.653,8.118
-0.050,-0.047,0.924,-10.498,11.536,6.958
-0.016,-0.035,0.953,-11.597,20.630,5.981
-0.023,-0.033,1.040,-10.803,25.757,6.470
-0.021,-0.045,1.015,-9.949,26.428,6.958
-0.057,-0.081,0.992,-9.155,24.109,7.812
-0.047,-0.110,1.022,-7.263,21.057,9.155
-0.048,-0.091,0.974,-5.920,13.428,10.254
-0.029,-0.097,0.976,-5.432,10.376,10.986
-0.014,-0.087,0.988,-6.104,10.193,10.498
-0.006,-0.091,0.989,-5.371,9.216,8.972
-0.008,-0.106,0.987,-3.479,7.629,6.714
-0.006,-0.086,0.978,-3.601,5.676,5.920
0.007,-0.067,0.980,-4.456,5.066,5.554
0.005,-0.057,0.988,-4.395,5.066,5.737
-0.001,-0.047,0.969,-3.052,4.272,5.798
0.001,-0.047,0.971,-0.671,3.723,6.165
0.017,-0.045,0.979,0.916,4.333,6.287
0.023,-0.052,0.973,1.831,3.662,6.042
0.036,-0.062,0.985,1.404,3.662,5.554
0.040,-0.070,0.980,0.610,2.808,5.371
0.046,-0.087,0.986,0.732,1.587,5.005
0.044,-0.103,0.981,1.709,0.061,4.700
0.030,-0.101,0.981,2.014,-1.648,5.554
0.026,-0.088,0.975,2.075,-1.587,6.104
0.021,-0.080,0.979,1.892,-0.427,6.287
0.013,-0.058,0.973,1.465,0.366,6.592
0.000,-0.047,0.975,1.465,0.916,6.897
-0.002,-0.041,0.968,2.258,1.465,6.775

-0.144,-0.019,0.972,5.859,-3.662,3.723
-0.153,-0.030,0.963,2.380,-5.371,5.554
-0.199,-0.004,0.931,-4.883,-7.690,6.226
-0.190,-0.004,0.882,-10.986,-9.399,6.897
-0.189,-0.002,0.920,-14.587,-11.230,9.399
-0.222,0.036,0.868,-19.470,-11.719,10.864
-0.093,-0.083,1.115,-14.465,-9.766,10.071
-0.232,0.058,0.560,-20.752,-5.981,10.559
-0.129,0.115,0.301,-0.732,-2.014,3.296
-0.001,-0.090,0.629,40.833,-0.916,0.305
0.054,-0.079,0.923,42.786,-7.751,3.235
0.077,-0.075,0.992,20.264,-10.986,9.583
0.074,-0.109,0.944,-0.366,-5.188,15.564
0.077,-0.085,0.800,-19.897,2.625,20.081
0.037,-0.059,0.626,-35.034,5.676,25.391
-0.035,-0.034,0.508,-40.344,5.127,29.724
-0.041,-0.016,0.419,-38.818,2.686,30.457
-0.082,-0.019,0.381,-32.898,-3.601,29.419
-0.139,-0.062,0.401,-23.560,-13.672,27.283
-0.129,-0.094,0.435,-15.442,-25.208,22.461
-0.085,-0.103,0.471,-10.376,-38.086,16.479
-0.041,-0.087,0.515,-6.897,-50.537,12.085
0.036,-0.047,0.567,-6.714,-58.411,9.827
0.112,-0.015,0.637,-9.827,-60.425,11.658
0.125,-0.004,0.645,-18.738,-54.749,17.517
0.091,-0.011,0.552,-32.349,-45.105,26.062
0.072,-0.019,0.386,-44.189,-35.767,34.485
0.004,-0.028,0.246,-48.035,-29.053,42.542
-0.091,-0.051,0.166,-43.640,-26.306,46.753
-0.125,-0.037,0.143,-34.485,-27.161,45.837
-0.133,-0.000,0.175,-23.743,-32.227,43.091
-0.151,0.033,0.274,-12.878,-39.246,40.527
-0.145,0.023,0.416,-3.662,-44.189,38.208
-0.145,0.012,0.552,0.000,-46.692,36.255
-0.130,-0.016,0.614,-4.395,-45.044,35.156
-0.113,-0.010,0.569,-15.076,-39.551,34.790
-0.120,0.006,0.450,-27.039,-33.325,34.302
-0.152,0.052,0.303,-34.119,-27.222,34.180
-0.170,0.159,0.174,-35.706,-21.729,32.410
-0.141,0.204,0.115,-28.809,-16.785,30.762
-0.151,0.197,0.152,-16.846,-13.672,31.006
-0.113,0.184,0.200,-7.385,-9.888,32.593
-0.145,0.171,0.335,0.244,-6.409,35.583
-0.312,0.052,0.504,8.484,-0.793,39.734
-0.501,-0.060,0.572,7.019,12.512,40.100
-0.597,-0.073,0.548,-2.991,30.579,32.898
-0.583,-0.053,0.497,-9.766,45.837,22.461
-0.539,0.025,0.510,-9.521,52.246,12.390
-0.535,0.136,0.581,-9.155,57.556,3.662
-0.409,0.227,0.557,-13.306,67.810,-6.287
-0.215,0.321,0.414,-21.606,72.083,-14.038
-0.090,0.439,0.269,-23.132,65.002,-15.503
-0.099,0.427,0.229,-10.498,51.941,-9.888
-0.166,0.340,0.328,9.033,40.527,-2.991
-0.249,0.219,0.490,23.926,38.330,1.038
-0.356,0.106,0.617,29.358,46.021,3.723
-0.454,0.040,0.664,24.170,62.378,2.502
-0.392,0.050,0.636,16.418,87.524,-5.371
-0.281,0.078,0.643,12.207,113.403,-14.099
-0.169,0.108,0.764,13.123,126.953,-24.475
-0.052,0.076,0.858,15.564,132.263,-33.691
0.018,0.088,0.866,13.062,128.479,-39.429
0.074,0.113,0.804,11.963,120.972,-40.833
0.080,0.137,0.758,17.822,109.741,-36.987
0.031,0.155,0.843,32.043,90.027,-30.884
-0.146,0.057,1.059,49.805,64.331,-25.757
-0.306,-0.039,1.260,57.800,46.021,-26.245
-0.468,-0.095,1.353,50.415,36.621,-28.748
-0.540,-0.119,1.300,36.011,26.855,-33.447
-0.500,-0.051,1.157,21.057,24.963,-41.504
-0.346,0.074,1.022,14.771,34.729,-52.124
-0.177,0.163,0.972,20.569,48.157,-61.279
-0.025,0.222,1.095,35.767,55.603,-66.040
0.292,0.224,1.450,52.612,51.453,-63.721
-0.089,0.105,1.603,56.396,22.278,-49.561
-0.568,-0.007,1.388,44.983,2.991,-38.818
-0.354,0.022,1.112,38.025,26.123,-51.270
-0.159,0.167,1.215,53.711,48.767,-73.242
0.023,0.093,1.275,63.721,29.297,-61.707
0.095,0.138,1.312,63.416,15.076,-45.776
0.350,0.063,1.635,79.773,22.156,-41.321
0.302,0.005,1.739,90.759,7.507,-29.053
0.082,-0.080,1.805,92.834,-14.648,-17.517
0.033,-0.153,2.047,99.243,-16.052,-19.897
0.029,-0.201,2.134,96.619,-16.052,-19.470
0.016,-0.152,2.012,77.759,-22.827,-11.169
0.012,-0.119,1.917,67.139,-23.560,-5.310
-0.088,-0.211,1.851,68.604,-25.269,-4.761
-0.093,-0.172,1.766,68.970,-26.184,-7.690
-0.049,-0.168,1.789,74.463,-17.822,-10.681
0.015,-0.215,1.895,83.130,-6.287,-14.160
0.024,-0.271,1.999,83.679,1.221,-13.123
0.004,-0.345,2.022,77.332,-0.122,-9.766
0.052,-0.330,1.945,64.026,-8.484,-6.958
0.013,-0.269,1.748,45.898,-9.644,-4.272
0.022,-0.245,1.591,39.551,-7.812,-3.784
0.097,-0.237,1.542,43.823,-12.268,0.061
0.048,-0.252,1.424,47.302,-21.179,7.812
-0.099,-0.302,1.227,45.593,-22.583,12.573
-0.118,-0.294,1.020,41.382,-2.930,9.277
-0.070,-0.307,1.000,37.720,32.471,1.709
-0.152,-0.372,0.991,44.739,69.580,-5.310
-0.133,-0.655,1.568,50.354,108.215,-13.062
-0.285,-0.566,3.065,-134.033,150.940,-28.320
0.927,0.597,0.501,-484.619,193.420,-31.006
-0.227,0.305,2.067,-225.281,3.357,-21.301
-0.254,0.436,1.030,-125.244,-58.472,16.541
0.123,-0.298,1.037,-7.935,8.789,-11.780
0.060,0.267,0.912,-24.048,-7.324,-13.855
0.069,-0.047,0.991,5.371,-8.179,-14.587
-0.043,0.041,1.023,14.771,-11.963,-17.578
-0.019,0.020,0.937,8.362,-5.127,-16.479
0.004,-0.039,0.987,-0.305,3.906,-13.306
0.018,-0.079,0.975,-2.625,5.798,-8.484
0.015,-0.115,0.977,0.183,1.526,-4.089
0.035,-0.113,0.982,-0.183,-0.061,-2.136
0.041,-0.100,0.964,0.916,-1.038,0.366
0.029,-0.112,0.983,1.526,-1.831,2.625
0.028,-0.106,0.975,1.465,-1.465,4.333

-0.061,-0.042,0.833,21.423,-15.442,-1.526
-0.010,-0.004,0.774,10.498,-24.170,4.150
0.029,0.039,0.815,7.324,-30.945,11.353
-0.123,0.036,0.774,10.986,-36.072,14.465
-0.135,0.094,0.474,10.437,-32.654,10.498
-0.152,-0.122,0.721,33.997,-28.564,3.235
-0.125,-0.119,0.699,25.085,-34.058,-2.441
-0.025,-0.026,0.467,3.479,-44.495,-5.066
0.074,-0.008,0.394,2.441,-49.805,-6.165
0.169,-0.022,0.381,5.310,-46.387,-4.944
0.167,0.004,0.333,-0.854,-39.978,-2.258
0.067,0.016,0.341,-5.432,-38.940,1.648
0.008,-0.051,0.332,-5.676,-47.302,3.296
-0.076,-0.107,0.260,-9.033,-65.125,4.883
-0.080,-0.076,0.136,-14.343,-82.520,3.418
-0.021,-0.024,0.078,-13.855,-90.698,-0.916
0.030,-0.016,0.121,-8.179,-93.689,-4.639
-0.037,-0.047,0.240,-4.700,-99.915,-7.385
-0.059,-0.096,0.308,-9.155,-108.276,-11.841
0.019,-0.133,0.239,-20.691,-114.197,-17.761
0.215,-0.095,0.052,-32.166,-115.479,-20.447
0.358,-0.014,-0.100,-35.217,-114.258,-16.785
0.411,0.046,-0.151,-30.396,-110.840,-9.766
0.430,0.054,-0.186,-23.560,-102.112,-1.892
0.354,0.050,-0.181,-19.287,-90.454,6.287
0.226,0.068,-0.107,-15.137,-74.524,13.428
0.139,0.077,0.028,-10.315,-53.711,16.113
0.104,0.055,0.136,-8.911,-31.982,15.808
0.055,0.064,0.192,-13.367,-14.709,15.198
-0.053,0.033,0.199,-20.691,-0.488,14.099
-0.146,0.054,0.185,-28.320,17.456,7.446
-0.144,0.072,0.230,-31.006,38.269,-4.333
-0.076,0.055,0.301,-30.090,58.777,-14.343
-0.012,0.069,0.294,-32.104,76.355,-18.066
0.029,0.115,0.185,-34.485,86.365,-16.052
0.038,0.182,0.094,-30.212,86.914,-12.939
0.042,0.205,0.136,-15.198,82.642,-10.010
0.081,0.224,0.323,3.174,76.721,-6.714
-0.004,0.192,0.588,16.724,70.374,-1.343
-0.123,0.182,0.795,19.165,73.853,1.709
-0.332,0.125,0.952,14.526,88.318,0.854
-0.554,0.010,1.035,9.094,102.295,-4.883
-0.698,0.001,1.000,-1.038,114.258,-18.616
-0.680,0.055,0.986,-4.761,123.108,-39.185
-0.509,0.079,0.972,0.427,126.404,-58.777
-0.338,0.167,0.966,8.484,117.737,-67.993
-0.193,0.252,1.006,19.531,101.135,-68.176
-0.140,0.318,1.160,31.799,88.745,-63.965
-0.188,0.254,1.354,43.640,76.416,-56.946
-0.332,0.171,1.453,44.495,59.875,-45.898
-0.503,0.146,1.458,35.889,46.082,-39.001
-0.548,0.123,1.507,33.813,41.016,-41.260
-0.465,0.073,1.587,38.269,37.720,-48.523
-0.318,0.059,1.655,37.292,31.433,-54.321
-0.297,0.032,1.698,31.555,22.583,-57.251
-0.255,-0.030,1.625,23.132,18.066,-60.425
-0.152,-0.019,1.526,14.160,17.456,-65.308
-0.243,-0.027,1.419,14.160,4.028,-56.702
-0.030,0.011,1.459,23.926,-6.836,-42.053
-0.137,0.008,1.497,44.861,-8.728,-36.377
-0.039,-0.028,1.625,59.631,-14.709,-29.175
-0.156,-0.083,1.694,61.279,-30.518,-13.977
-0.403,-0.126,1.748,57.129,-53.467,3.052
-0.504,-0.185,2.003,61.157,-49.194,0.977
-0.499,-0.319,2.237,65.063,-27.710,-9.216
-0.549,-0.285,2.282,51.758,-2.319,-23.010
-0.346,-0.257,2.244,38.147,18.127,-37.415
-0.373,-0.149,2.226,30.823,7.874,-44.067
-0.246,-0.142,2.150,27.344,0.122,-46.692
-0.172,-0.125,1.975,18.311,4.761,-47.668
-0.135,-0.112,1.761,10.315,10.071,-46.753
0.145,-0.003,1.707,17.090,9.705,-42.603
-0.057,-0.150,1.598,33.936,-9.644,-28.381
0.004,-0.076,1.577,44.617,-22.339,-26.489
-0.032,-0.068,1.546,44.250,-31.738,-16.968
-0.105,-0.152,1.469,40.649,-36.255,-7.263
-0.129,-0.169,1.301,27.954,-29.236,-4.639
-0.205,-0.132,1.225,22.522,-22.522,-6.897
-0.136,-0.146,1.294,34.973,-19.592,-8.789
0.010,-0.150,1.345,46.143,-23.743,-7.507
0.061,-0.177,1.290,34.729,-13.855,-3.235
-0.023,-0.146,1.162,14.404,11.597,-4.272
0.040,-0.084,1.115,8.911,41.199,-10.864
0.150,-0.056,1.169,22.522,45.410,-10.132
0.073,-0.139,1.342,38.757,26.489,0.000
0.008,-0.180,1.443,50.964,1.038,8.972
-2.227,-2.689,4.000,26.978,7.080,10.132
-0.742,1.423,1.229,-266.968,174.744,-30.701
0.789,0.427,2.116,-166.321,232.178,-69.519
0.035,-0.484,1.249,10.376,67.749,-45.410
-0.207,0.233,0.529,-56.702,-15.381,-0.549
0.257,0.086,1.069,-26.855,21.423,-8.667
-0.040,-0.109,1.075,0.549,2.747,-2.686
-0.078,0.119,0.845,-9.827,-3.418,0.793
-0.052,0.044,0.883,-2.136,0.854,2.014
-0.057,-0.072,1.052,10.010,3.296,2.930
-0.031,-0.039,1.002,3.113,4.700,2.747
0.022,-0.020,0.992,-2.380,3.906,2.014
0.002,-0.028,0.999,-0.366,0.854,2.319
-0.008,-0.025,0.955,0.427,-0.671,2.686
-0.016,-0.021,0.970,2.563,-0.610,3.113
-0.016,-0.042,0.993,4.333,0.122,3.784
-0.013,-0.027,0.987,2.563,0.488,4.700
-0.018,-0.016,0.983,1.343,0.549,5.615
-0.021,-0.012,0.979,1.160,0.366,6.287
-0.020,-0.009,0.975,1.160,0.183,6.165
-0.012,-0.014,0.975,1.892,0.122,5.798
-0.014,-0.021,0.973,2.991,0.183,5.737
-0.009,-0.024,0.977,3.967,0.122,5.493
-0.010,-0.026,0.980,4.333,0.183,5.615
-0.011,-0.021,0.985,4.089,-0.122,5.859
-0.010,-0.015,0.979,2.930,-0.244,5.859
-0.013,-0.012,0.978,2.808,-0.305,5.676
-0.015,-0.013,0.979,3.418,-0.244,5.554
-0.014,-0.011,0.973,3.967,-0.244,5.127
-0.012,-0.017,0.976,4.761,-0.305,4.517
-0.015,-0.022,0.980,5.615,-0.427,3.662
-0.014,-0.022,0.979,5.981,-0.671,3.113
-0.014,-0.027,0.981,6.104,-0.549,2.808

-0.073,0.108,0.736,17.395,19.470,-2.808
-0.027,0.115,0.650,19.958,16.479,-2.930
0.006,0.082,0.617,25.269,13.428,-1.343
0.047,0.038,0.584,25.696,9.460,1.709
-0.029,0.012,0.695,20.142,2.686,5.981
-0.104,0.107,0.691,9.766,-0.732,7.507
-0.129,0.068,0.704,1.343,-1.038,4.211
-0.071,0.015,0.901,-0.488,-1.770,-1.099
0.053,-0.044,0.524,-4.944,-2.136,-5.127
0.037,0.213,0.255,-12.573,-6.958,-3.540
0.074,0.007,0.299,4.700,-12.024,1.343
0.038,0.033,0.320,9.888,-10.193,3.967
0.053,0.038,0.369,11.047,-4.517,4.944
0.057,0.002,0.447,13.245,1.831,5.859
0.059,0.005,0.461,9.216,8.179,6.775
0.066,0.010,0.469,3.601,12.939,7.751
0.057,-0.004,0.490,0.549,16.357,8.667
0.045,-0.002,0.499,-4.150,17.334,9.827
0.009,0.008,0.516,-9.888,15.076,10.742
-0.052,-0.006,0.491,-16.724,13.062,10.498
-0.057,-0.003,0.361,-26.001,12.024,7.324
-0.012,0.020,0.193,-31.006,8.911,3.967
-0.029,0.023,0.078,-26.794,-0.854,3.052
-0.002,0.042,0.044,-15.930,-13.977,1.648
0.062,0.062,0.138,-1.282,-27.893,-0.610
0.111,0.069,0.314,12.146,-42.603,-1.160
0.085,0.061,0.522,18.921,-56.885,-0.061
0.010,0.026,0.632,15.503,-67.200,0.244
0.046,0.061,0.557,2.136,-71.533,-2.930
0.085,0.101,0.445,-8.606,-71.350,-5.066
0.106,0.121,0.359,-13.550,-62.622,-5.981
0.148,0.159,0.265,-16.418,-45.532,-7.263
0.174,0.182,0.211,-15.076,-28.687,-6.775
0.195,0.189,0.179,-9.521,-16.785,-2.319
0.116,0.195,0.274,0.305,-10.925,6.775
-0.026,0.155,0.466,11.963,-8.118,15.625
-0.215,0.107,0.663,17.273,-3.723,19.836
-0.307,0.099,0.785,14.221,7.996,17.273
-0.419,0.100,0.896,6.653,23.621,9.888
-0.410,0.103,0.846,-5.432,34.729,-0.549
-0.335,0.170,0.705,-18.738,36.682,-10.254
-0.241,0.198,0.608,-21.606,33.752,-17.334
-0.139,0.234,0.560,-15.442,32.776,-21.667
-0.070,0.270,0.576,-5.493,32.837,-22.278
-0.089,0.280,0.698,6.165,32.166,-19.348
-0.194,0.222,0.812,14.771,29.236,-15.198
-0.331,0.186,0.845,15.625,22.461,-12.695
-0.431,0.134,0.851,15.015,14.954,-15.686
-0.441,0.127,0.902,16.174,12.390,-24.109
-0.417,0.113,0.966,17.578,14.771,-33.569
-0.341,0.144,0.983,14.771,22.217,-42.542
-0.259,0.162,0.994,11.780,32.593,-49.377
-0.184,0.149,0.975,11.597,39.612,-51.819
-0.123,0.177,0.921,10.559,41.748,-50.537
-0.101,0.187,0.932,15.198,41.077,-48.096
-0.103,0.165,1.027,23.682,38.208,-45.654
-0.109,0.143,1.107,29.236,29.785,-43.335
-0.105,0.135,1.179,32.715,12.817,-39.795
-0.088,0.117,1.228,36.560,-7.019,-35.278
-0.057,0.131,1.243,37.598,-22.461,-30.884
-0.044,0.141,1.279,37.842,-30.334,-27.161
-0.100,0.121,1.343,37.170,-27.832,-23.193
0.316,0.095,1.717,29.907,-23.865,-17.151
-1.140,0.135,0.995,5.432,-50.354,8.118
-0.035,-0.121,1.182,18.494,23.010,-25.818
-0.276,0.049,1.151,38.574,39.551,-47.913
0.128,0.010,1.293,44.006,19.409,-44.067
-0.011,0.129,1.294,45.349,-10.071,-32.959
0.090,0.049,1.399,49.500,-20.325,-23.132
0.013,0.105,1.477,48.096,-24.963,-12.756
-0.001,0.047,1.484,44.250,-22.949,-4.089
-0.144,-0.016,1.468,37.903,-27.771,3.967
-0.248,-0.048,1.500,36.987,-27.893,5.432
-0.191,-0.088,1.505,36.743,-22.949,1.587
-0.079,-0.052,1.483,35.339,-26.917,1.099
0.029,0.005,1.438,35.095,-35.950,5.676
0.079,0.005,1.370,34.790,-39.307,14.038
-0.003,-0.058,1.241,33.569,-44.373,25.330
-0.223,-0.027,1.229,35.339,-50.903,31.982
-0.352,-0.115,1.346,45.044,-39.368,28.992
-0.508,-0.166,1.501,48.828,-20.508,20.203
-0.499,-0.201,1.604,43.152,-0.916,9.583
-0.436,-0.181,1.604,33.691,11.841,-1.831
-0.354,-0.140,1.505,24.109,12.268,-10.315
-0.282,-0.079,1.415,21.057,6.348,-15.503
-0.213,-0.074,1.347,25.024,1.587,-18.311
-0.214,-0.067,1.381,31.921,0.183,-21.240
-0.206,-0.109,1.492,41.870,-2.258,-23.010
-0.187,-0.093,1.542,46.875,-6.958,-20.874
-0.049,-0.060,1.585,46.021,-10.803,-20.325
-0.036,-0.017,1.507,38.635,-17.700,-13.489
-0.020,0.039,1.403,35.156,-22.583,-8.240
0.204,0.035,1.247,21.790,6.958,-3.662
0.143,0.065,1.146,10.498,36.255,-0.427
0.140,0.054,1.119,22.400,32.288,10.681
-0.029,-0.102,1.127,36.804,14.282,29.663
-0.254,-0.190,1.170,44.373,0.122,39.001
-2.099,-0.949,3.094,41.626,-0.549,38.330
-0.943,-0.070,1.934,-140.930,195.984,-13.977
0.494,1.270,1.427,-227.173,328.186,-100.952
0.674,-0.588,1.689,-12.512,92.468,-79.285
-0.272,0.001,0.988,-44.250,-9.949,-22.278
0.339,0.447,0.494,-57.373,-5.066,-41.626
0.104,0.371,0.838,12.085,-18.311,-35.217
-0.159,0.038,0.939,31.067,-4.456,-3.418
-0.097,-0.020,1.008,28.748,4.333,0.366
-0.062,-0.045,1.028,25.513,5.981,-2.502
0.013,-0.095,1.021,19.165,7.019,-1.587
0.002,-0.067,1.025,12.329,5.371,-1.648
0.037,-0.060,0.986,6.409,3.662,-1.038
-0.013,-0.086,1.006,3.967,2.625,2.869
-0.017,-0.074,1.048,0.549,1.648,5.371
-0.023,-0.025,0.992,-7.019,0.610,6.470
-0.037,0.001,0.972,-10.437,-0.183,7.141
-0.026,0.011,0.972,-9.277,-0.183,7.141
-0.032,0.012,0.955,-7.568,-0.549,7.446
-0.031,0.022,0.943,-4.456,-0.732,7.385
-0.029,0.010,0.955,-0.061,-0.244,7.019
-0.033,0.002,0.967,2.930,0.549,6.653

-0.131,0.012,0.683,30.884,1.953,1.892
-0.151,0.016,0.619,20.081,0.793,0.061
-0.131,0.021,0.607,15.503,-2.808,-1.709
-0.142,0.019,0.660,12.878,-7.019,-2.991
-0.125,0.044,0.657,8.240,-6.958,-3.906
-0.080,0.024,0.687,5.310,-4.028,-4.333
-0.012,-0.007,0.722,-1.282,-3.906,-1.282
-0.125,0.139,0.340,-11.963,-5.676,5.615
-0.032,-0.042,0.724,-10.925,-3.662,7.629
0.115,0.098,0.338,-19.104,1.465,11.414
0.004,0.016,0.350,1.343,3.479,16.479
-0.007,-0.105,0.562,23.071,14.099,15.015
-0.042,-0.082,0.674,15.686,18.188,13.794
-0.038,-0.047,0.631,2.136,14.099,12.390
-0.012,-0.051,0.519,-4.761,6.653,9.094
0.008,-0.039,0.390,-6.775,-7.629,6.348
0.007,-0.012,0.307,-4.578,-25.574,4.883
0.005,-0.015,0.315,1.282,-39.673,3.418
0.013,-0.026,0.334,4.822,-48.279,1.404
0.044,-0.038,0.315,4.639,-53.406,0.183
0.057,-0.043,0.295,3.845,-56.519,1.648
0.080,-0.035,0.272,4.456,-57.068,4.578
0.080,0.012,0.323,6.470,-55.237,7.080
0.073,0.035,0.441,9.949,-48.950,8.789
0.044,0.039,0.512,8.362,-40.161,10.010
-0.025,0.059,0.526,1.892,-33.752,10.620
-0.089,0.059,0.506,-4.089,-28.809,9.399
-0.112,0.071,0.459,-8.972,-24.414,5.859
-0.095,0.073,0.382,-12.573,-22.400,2.502
-0.112,0.092,0.345,-14.404,-20.874,0.061
-0.102,0.090,0.345,-13.245,-15.442,-2.991
-0.062,0.101,0.339,-11.902,-10.681,-6.653
-0.043,0.105,0.308,-11.108,-9.399,-8.301
-0.049,0.129,0.289,-9.399,-5.676,-8.240
-0.066,0.137,0.349,-3.723,3.601,-7.324
-0.117,0.136,0.479,2.014,15.869,-5.737
-0.178,0.131,0.583,2.563,29.297,-5.676
-0.267,0.122,0.628,-2.258,42.603,-7.324
-0.288,0.115,0.573,-10.132,54.199,-12.207
-0.229,0.132,0.436,-16.541,58.716,-18.799
-0.174,0.161,0.382,-13.611,52.063,-22.583
-0.224,0.155,0.449,-0.916,38.208,-22.766
-0.255,0.160,0.558,12.024,29.114,-24.353
-0.286,0.115,0.679,19.836,30.762,-26.855
-0.346,0.098,0.786,21.118,37.476,-31.311
-0.331,0.088,0.851,16.235,50.842,-38.757
-0.257,0.123,0.891,8.118,69.519,-47.913
-0.148,0.184,0.918,0.671,92.224,-57.678
-0.047,0.206,0.929,-2.930,111.572,-65.002
-0.018,0.225,0.902,-3.479,116.333,-67.932
-0.062,0.220,0.847,0.366,103.821,-65.796
-0.097,0.225,0.839,10.132,78.857,-60.974
-0.136,0.202,0.928,24.109,47.791,-56.519
-0.146,0.171,1.044,33.936,22.461,-54.016
-0.179,0.114,1.132,35.400,7.568,-51.941
-0.272,0.061,1.132,28.870,7.935,-51.025
-0.274,0.053,1.117,22.156,24.170,-56.152
-0.212,0.054,1.206,22.705,42.480,-63.721
-0.110,0.042,1.277,25.330,52.979,-69.702
0.056,0.113,1.314,25.879,52.795,-72.998
0.172,0.147,1.406,32.532,37.903,-70.068
0.202,0.140,1.478,38.147,13.062,-60.669
0.567,0.129,1.825,33.386,-19.836,-44.617
-0.566,0.187,1.188,14.771,-60.791,-16.907
-0.106,-0.064,1.314,26.917,-1.831,-44.189
-0.232,-0.047,1.292,32.715,27.344,-57.739
-0.077,-0.121,1.287,32.654,42.480,-59.998
0.029,-0.039,1.254,31.555,40.833,-59.387
0.238,-0.001,1.357,45.471,27.222,-55.908
0.311,-0.003,1.588,63.782,-1.221,-44.800
0.238,-0.087,1.755,69.702,-32.532,-29.175
0.068,-0.040,1.782,59.692,-45.593,-18.616
-0.114,-0.138,1.700,46.265,-41.565,-10.620
-0.293,-0.212,1.521,35.706,-36.438,-8.362
-0.288,-0.183,1.414,30.945,-26.123,-17.334
-0.116,-0.160,1.494,39.429,-16.235,-29.785
0.080,-0.114,1.610,49.316,-18.799,-32.959
0.145,-0.085,1.615,47.241,-27.832,-26.245
0.126,-0.094,1.522,40.100,-31.616,-16.418
0.089,-0.111,1.406,36.804,-28.137,-7.080
0.044,-0.117,1.357,39.001,-26.001,0.916
0.013,-0.115,1.434,45.715,-23.926,7.629
-0.161,-0.229,1.556,49.805,-11.963,11.047
-0.169,-0.263,1.551,38.208,19.531,4.089
-0.057,-0.174,1.479,19.043,44.922,-5.432
0.070,-0.111,1.450,16.052,42.419,-8.301
0.414,0.090,1.484,22.949,29.907,-3.174
0.133,-0.153,1.394,30.945,13.245,9.766
0.081,-0.049,1.388,32.349,16.296,5.798
0.252,0.005,1.485,34.058,27.222,7.935
0.153,-0.045,1.607,44.434,5.981,18.860
-0.094,-0.168,1.672,43.335,-10.376,30.762
-0.286,-0.276,1.608,31.250,-13.855,30.823
-0.242,-0.209,1.464,12.634,-10.132,22.522
-0.151,-0.145,1.316,0.244,-9.888,15.991
-0.083,-0.123,1.199,0.671,-15.808,13.977
-0.039,-0.112,1.136,6.104,-24.170,14.465
-0.336,-0.632,2.136,11.475,-29.663,17.273
-0.091,0.138,1.544,-131.836,22.522,7.324
-0.075,1.095,2.050,-272.278,54.321,-12.939
-0.229,-0.191,0.835,-61.401,-40.039,-4.700
-0.343,-0.085,0.992,-18.311,-27.527,-11.719
0.263,0.100,1.024,-31.372,8.484,-25.330
-0.018,0.120,0.854,-12.634,-5.676,-19.592
-0.052,-0.040,0.972,8.667,-8.728,-7.446
-0.089,-0.037,1.021,9.460,-1.648,-6.470
-0.061,-0.021,0.985,2.930,1.953,-7.324
-0.003,-0.040,0.991,-0.366,4.089,-6.531
0.030,-0.036,0.990,-1.892,2.625,-3.479
0.020,-0.042,0.967,-1.465,0.427,-0.244
-0.021,-0.061,0.996,-0.183,-0.732,2.197
-0.035,-0.033,0.985,-0.977,-0.244,2.563
-0.036,-0.032,0.978,-1.648,0.732,3.296
-0.036,-0.029,0.985,-1.221,1.709,3.723
-0.027,-0.013,0.980,-1.709,2.869,4.150
-0.031,-0.004,0.970,-1.831,3.113,5.127
-0.036,-0.005,0.978,-0.549,3.113,6.226
-0.033,-0.009,0.974,0.488,2.991,6.592
-0.029,-0.009,0.975,1.343,2.563,6.409

-0.068,0.001,0.562,18.005,26.611,-7.080
-0.070,-0.053,0.561,21.545,23.193,-5.249
-0.141,-0.070,0.570,20.935,14.771,-3.113
-0.116,-0.052,0.623,16.052,7.019,-2.502
-0.052,-0.032,0.633,8.972,-3.967,1.709
0.012,-0.077,0.626,2.991,-16.113,9.644
-0.010,-0.051,0.674,-1.282,-24.536,18.921
-0.134,0.041,0.262,-4.639,-30.579,25.024
-0.075,-0.108,0.726,-0.916,-29.053,24.048
-0.132,-0.075,0.595,-22.705,-23.560,21.851
-0.047,-0.019,0.483,-24.048,-8.545,14.771
-0.003,-0.078,0.517,-10.437,10.376,8.789
0.015,-0.071,0.509,-11.353,21.729,8.484
0.061,-0.032,0.459,-17.151,29.053,8.789
0.068,-0.065,0.435,-17.761,31.372,9.338
0.052,-0.080,0.355,-18.188,24.780,10.254
0.015,-0.050,0.283,-17.700,10.559,10.559
-0.025,-0.030,0.295,-10.864,-6.042,9.827
-0.036,-0.002,0.373,-3.296,-20.325,7.141
-0.056,-0.004,0.451,0.549,-33.997,5.493
-0.065,-0.008,0.452,-0.854,-49.316,5.615
-0.076,0.023,0.398,-5.188,-63.171,5.127
-0.045,0.020,0.405,-4.395,-72.021,3.845
-0.055,0.020,0.483,-2.014,-73.425,3.479
-0.083,0.018,0.528,-8.240,-56.519,3.540
-0.131,0.027,0.499,-20.996,-21.118,0.183
-0.118,0.032,0.386,-31.677,12.634,-3.845
-0.119,0.087,0.260,-38.391,29.480,-5.188
-0.125,0.121,0.211,-36.072,34.546,-5.981
-0.098,0.132,0.216,-27.893,34.302,-8.057
-0.023,0.167,0.281,-17.639,26.733,-9.277
-0.030,0.177,0.412,-8.057,16.479,-7.629
-0.078,0.162,0.513,-3.052,12.146,-5.859
-0.155,0.184,0.586,-3.357,15.137,-5.737
-0.270,0.172,0.690,-3.601,21.484,-7.080
-0.404,0.115,0.729,-7.996,32.288,-11.169
-0.484,0.125,0.670,-20.203,48.462,-21.240
-0.434,0.112,0.574,-30.029,66.589,-35.950
-0.268,0.132,0.400,-35.583,79.895,-49.194
-0.122,0.202,0.244,-34.363,81.848,-55.115
-0.089,0.211,0.276,-16.968,73.669,-54.016
-0.123,0.174,0.496,7.507,60.913,-51.941
-0.194,0.110,0.792,25.513,46.570,-48.950
-0.400,0.088,1.002,29.968,36.011,-45.410
-0.477,0.105,1.108,23.865,37.781,-51.392
-0.341,0.172,1.064,9.888,50.842,-64.819
-0.202,0.260,0.907,-3.479,54.199,-75.256
-0.097,0.277,0.714,-7.019,44.922,-79.224
0.012,0.319,0.601,0.793,27.649,-79.834
0.044,0.340,0.714,20.874,7.751,-75.562
0.021,0.270,0.998,44.067,-6.714,-68.542
-0.012,0.219,1.232,52.246,-7.690,-61.829
-0.108,0.178,1.342,44.922,8.789,-57.556
-0.149,0.165,1.316,31.555,39.551,-59.937
-0.120,0.201,1.263,21.423,65.308,-66.040
-0.010,0.226,1.245,19.714,74.219,-70.862
0.113,0.257,1.226,22.705,65.308,-70.740
0.148,0.244,1.162,26.978,38.269,-64.453
0.175,0.240,1.084,34.363,1.221,-55.481
0.177,0.251,1.090,46.692,-35.583,-45.837
0.151,0.230,1.224,60.852,-61.462,-36.072
0.113,0.176,1.343,66.772,-69.702,-27.466
0.036,0.140,1.329,57.556,-62.500,-19.470
0.390,0.116,1.538,43.030,-46.692,-13.672
-0.878,0.179,0.925,21.851,-57.007,4.395
-0.054,-0.041,0.978,32.776,15.625,-20.874
-0.028,0.098,1.198,58.044,54.871,-48.035
0.013,0.033,1.409,60.913,34.546,-35.828
-0.065,0.119,1.397,54.321,19.043,-26.184
0.029,0.080,1.534,59.937,22.583,-29.968
0.058,0.074,1.682,62.622,4.089,-25.330
0.019,0.083,1.714,54.810,-20.203,-14.709
0.011,0.076,1.610,40.894,-32.898,-6.775
0.062,0.066,1.434,28.687,-30.396,-2.869
-0.050,0.056,1.263,22.583,-26.367,2.441
-0.063,0.022,1.148,24.719,-26.672,7.019
-0.140,-0.071,1.148,31.250,-21.484,8.728
-0.159,-0.101,1.244,38.940,-16.174,6.409
-0.182,-0.099,1.345,43.396,-9.888,3.052
-0.186,-0.123,1.520,46.387,1.038,-2.625
-0.179,-0.155,1.625,43.030,14.160,-9.766
-0.033,-0.126,1.590,30.396,21.790,-16.174
0.007,-0.076,1.414,16.785,12.634,-14.893
0.066,-0.046,1.250,13.306,-2.319,-11.414
0.051,-0.010,1.204,20.142,-13.672,-7.812
0.235,0.012,1.416,31.738,-18.433,-5.188
-0.028,-0.127,1.493,41.382,-25.024,1.404
0.053,-0.077,1.589,40.649,-15.564,-2.869
0.071,-0.066,1.570,30.823,-15.259,2.136
0.000,-0.106,1.458,23.682,-30.701,13.428
-0.032,-0.058,1.385,20.020,-45.471,20.386
-0.081,-0.041,1.370,20.264,-50.598,26.062
-0.082,-0.179,1.334,15.076,-39.551,26.489
-0.165,-0.123,1.229,2.625,-25.085,21.973
-0.037,-0.137,1.115,-8.728,-1.465,12.878
0.031,-0.048,1.038,-11.292,20.264,6.104
0.141,-0.017,1.077,5.432,18.982,5.920
0.119,-0.042,1.188,23.254,4.333,14.709
-0.076,-0.110,1.330,33.691,-7.080,24.353
-0.205,-0.222,1.357,32.654,-12.512,29.114
-0.312,-0.211,1.359,24.109,-12.146,25.452
-0.324,-0.254,1.363,21.179,-6.653,16.541
-1.371,-2.140,3.992,8.118,4.822,7.141
-0.511,0.677,1.600,-197.021,98.145,-17.395
0.312,0.324,1.212,-157.959,120.056,-60.974
0.088,-0.427,1.447,5.920,37.537,-58.533
-0.097,0.105,0.656,-47.791,-5.981,-35.522
0.242,0.100,0.905,-23.926,10.254,-42.236
0.070,-0.075,1.234,11.047,0.427,-31.677
-0.063,-0.033,0.882,-6.226,-6.531,-16.968
-0.024,-0.008,0.810,-11.292,0.122,-13.428
-0.026,-0.091,1.044,5.005,7.690,-12.573
-0.025,-0.117,1.025,2.197,8.301,-8.118
0.008,-0.085,0.931,-7.568,6.592,-4.211
0.018,-0.092,0.988,-3.662,4.944,-1.892
0.020,-0.099,0.984,-1.099,3.113,0.488
0.006,-0.059,0.971,-2.014,2.197,2.197
-0.010,-0.067,1.001,0.793,1.892,3.113
-0.021,-0.058,0.986,-0.061,1.953,4.028

-0.153,-0.061,0.901,36.743,-5.554,-2.258
-0.181,-0.075,0.911,25.208,-6.104,-2.930
-0.201,-0.085,0.906,10.559,-3.357,-3.052
-0.208,-0.095,0.901,-4.395,-1.160,-2.869
-0.163,-0.090,0.912,-19.287,-1.648,-0.732
-0.063,-0.045,0.889,-34.485,-4.333,4.089
-0.164,0.214,0.259,-42.053,-5.066,10.620
-0.159,-0.030,0.791,-26.184,-4.700,9.888
-0.068,0.044,0.365,-24.719,0.916,7.935
-0.073,-0.026,0.315,3.235,0.549,7.202
-0.110,-0.140,0.586,28.625,-3.357,7.874
-0.124,-0.089,0.685,22.827,-9.644,8.423
-0.115,-0.091,0.691,13.123,-15.991,7.812
-0.051,-0.098,0.654,6.836,-20.691,5.859
0.006,-0.072,0.627,0.122,-24.780,5.249
0.055,-0.070,0.584,-5.615,-24.658,6.104
0.116,-0.045,0.470,-12.634,-21.301,7.385
0.124,-0.008,0.390,-16.663,-18.188,11.169
0.046,-0.031,0.380,-15.930,-10.254,16.113
-0.019,-0.028,0.378,-16.907,5.188,17.273
-0.042,-0.023,0.368,-19.287,21.057,15.503
-0.041,-0.001,0.367,-20.630,28.687,13.672
-0.056,0.012,0.373,-20.691,26.672,13.367
-0.051,0.020,0.361,-19.592,17.700,13.306
-0.042,0.037,0.375,-16.052,1.770,13.123
-0.024,0.042,0.425,-10.010,-17.578,12.756
-0.015,0.042,0.474,-5.737,-36.072,12.878
-0.011,0.026,0.482,-5.676,-49.438,13.611
-0.023,0.039,0.475,-8.606,-56.458,14.893
-0.058,0.034,0.467,-12.756,-53.772,15.503
-0.073,0.047,0.412,-20.203,-38.208,13.184
-0.121,0.079,0.341,-28.564,-17.029,9.705
-0.133,0.106,0.239,-34.485,1.770,5.615
-0.124,0.163,0.161,-36.011,14.282,1.404
-0.093,0.181,0.167,-29.236,19.836,-1.953
-0.087,0.168,0.276,-17.029,19.409,-3.723
-0.103,0.140,0.400,-7.446,16.174,-4.333
-0.138,0.138,0.489,-4.822,16.907,-4.944
-0.161,0.144,0.571,-4.517,23.010,-7.141
-0.219,0.117,0.656,-4.272,29.907,-10.132
-0.292,0.094,0.666,-8.728,36.011,-13.550
-0.360,0.105,0.632,-16.541,41.687,-19.531
-0.319,0.116,0.566,-22.095,46.936,-29.419
-0.256,0.152,0.456,-25.146,48.523,-39.246
-0.149,0.226,0.367,-21.301,51.453,-46.753
-0.075,0.245,0.412,-8.240,57.434,-50.110
-0.031,0.227,0.566,8.362,60.364,-50.842
-0.062,0.207,0.772,20.508,61.157,-48.096
-0.114,0.181,0.953,25.696,64.819,-46.204
-0.127,0.171,1.070,24.719,73.547,-48.218
-0.126,0.164,1.113,20.691,79.651,-50.781
-0.170,0.166,1.096,16.296,76.233,-52.246
-0.239,0.172,1.096,16.357,62.378,-52.185
-0.266,0.168,1.145,22.461,42.236,-52.673
-0.244,0.177,1.197,29.541,21.973,-53.406
-0.181,0.188,1.222,33.997,2.441,-52.551
-0.158,0.168,1.231,36.316,-14.099,-48.218
-0.199,0.131,1.259,37.231,-22.095,-42.847
-0.242,0.068,1.306,36.255,-14.954,-41.199
-0.215,0.022,1.327,33.081,1.587,-45.044
-0.118,0.046,1.333,28.809,16.663,-50.171
-0.049,0.061,1.337,26.550,24.841,-51.941
0.010,0.095,1.334,26.428,27.771,-51.086
0.740,0.169,1.755,27.954,15.320,-45.715
-0.562,0.343,1.013,18.372,-39.490,-13.977
0.328,0.104,1.335,45.349,0.916,-37.109
0.164,0.119,1.578,61.829,-9.705,-33.081
-0.062,0.026,1.578,51.025,-34.912,-10.681
-0.197,0.024,1.495,33.875,-40.588,-0.427
-0.250,-0.029,1.475,34.302,-25.696,-4.395
-0.159,-0.053,1.475,36.438,-8.240,-11.292
-0.081,-0.019,1.440,33.203,-8.850,-10.193
-0.076,0.001,1.339,33.936,-16.296,-4.883
-0.087,-0.022,1.340,39.795,-24.414,0.000
-0.097,-0.035,1.415,48.157,-35.706,5.005
-0.140,-0.036,1.518,52.734,-46.692,10.803
-0.217,-0.059,1.595,50.354,-48.279,15.198
-0.258,-0.092,1.566,40.405,-35.034,13.855
-0.191,-0.053,1.496,28.198,-14.648,7.446
-0.184,-0.085,1.401,21.912,1.343,1.221
-0.175,-0.130,1.290,21.057,3.906,-1.770
-0.131,-0.093,1.256,24.475,-4.761,-2.502
-0.245,-0.147,1.311,32.837,-13.062,-3.174
-0.276,-0.208,1.414,36.682,-15.076,-5.676
-0.370,-0.195,1.445,31.250,-8.057,-11.597
-0.268,-0.239,1.388,23.560,2.014,-18.921
-0.206,-0.188,1.307,16.785,7.019,-24.475
-0.024,-0.162,1.245,16.235,8.789,-27.527
0.026,-0.116,1.221,20.508,0.549,-26.123
0.110,-0.087,1.231,24.414,-4.761,-21.301
0.072,-0.085,1.283,28.015,-8.179,-14.343
0.050,-0.111,1.353,30.212,-8.606,-9.460
0.002,-0.111,1.333,26.428,-8.606,-4.089
0.059,-0.115,1.160,11.230,-1.587,2.808
-0.140,-0.179,0.980,-2.502,12.085,4.211
-0.000,-0.070,0.995,4.944,37.292,-7.751
-0.014,-0.119,1.142,28.259,38.879,-9.583
-0.015,-0.197,1.331,42.969,28.137,-5.859
-0.034,-0.201,1.398,40.344,20.020,-3.174
-0.004,-0.167,1.363,26.917,23.193,-3.113
0.001,-0.139,1.297,14.832,31.006,-3.418
0.057,-0.146,1.243,10.803,34.973,-3.540
0.062,-0.150,1.202,9.277,28.259,0.488
0.066,-0.159,1.165,10.620,14.832,6.470
0.059,-0.164,1.108,11.841,1.709,12.207
0.023,-0.154,1.043,11.475,-8.301,18.555
-0.043,-0.184,0.980,13.062,-12.268,22.705
-1.511,-1.955,3.997,-11.047,3.235,18.311
-0.357,0.600,1.280,-246.643,101.685,-18.799
-0.001,0.497,1.727,-184.631,80.017,-13.916
-0.102,-0.085,0.875,-46.204,3.418,-12.939
-0.303,0.032,0.842,-36.377,-17.883,-13.550
0.304,0.206,0.901,-28.992,17.700,-26.245
0.009,0.057,0.976,-3.967,4.211,-17.334
-0.099,0.058,0.954,8.606,-5.310,-4.578
-0.048,-0.016,0.965,11.108,-0.427,-5.554
-0.091,-0.026,1.008,12.634,0.610,-5.493
-0.054,-0.044,1.002,8.667,3.967,-5.554
0.004,-0.046,0.983,5.249,4.822,-7.202

-0.080,-0.043,0.747,-1.465,23.682,-1.953
-0.091,-0.046,0.767,-3.052,16.907,0.793
-0.034,-0.070,0.744,-5.798,8.118,4.395
-0.034,-0.008,0.725,-4.272,-2.075,11.230
-0.019,-0.015,0.656,0.488,-14.832,17.578
-0.198,0.208,0.150,9.766,-22.400,20.630
-0.023,-0.119,0.724,25.635,-18.799,17.639
0.192,-0.033,0.505,11.292,-12.756,18.616
0.068,-0.103,0.591,14.832,-8.789,23.437
0.090,-0.135,0.630,13.000,2.258,22.217
0.121,-0.075,0.538,-1.709,10.498,20.752
0.137,-0.096,0.481,-4.944,10.620,21.790
0.160,-0.106,0.443,-4.028,6.104,22.644
0.178,-0.095,0.431,-3.723,-4.211,24.658
0.179,-0.104,0.404,-3.174,-16.785,27.893
0.191,-0.091,0.349,-4.150,-30.334,31.677
0.162,-0.074,0.322,-4.211,-44.861,36.621
0.097,-0.095,0.300,-4.517,-51.575,40.771
0.063,-0.077,0.270,-7.629,-48.828,41.931
0.024,-0.068,0.282,-10.498,-38.940,41.565
-0.023,-0.079,0.319,-13.977,-24.902,39.917
-0.069,-0.089,0.303,-20.203,-12.146,36.804
-0.080,-0.066,0.246,-27.039,-6.042,32.471
-0.063,-0.034,0.185,-28.870,-5.981,27.649
-0.068,-0.005,0.164,-26.794,-9.460,23.804
-0.060,0.016,0.180,-22.888,-14.221,19.653
-0.065,0.027,0.208,-19.592,-21.423,16.663
-0.098,0.040,0.226,-20.386,-25.452,14.526
-0.105,0.064,0.242,-23.560,-22.034,10.742
-0.118,0.075,0.284,-28.015,-11.902,6.470
-0.183,0.067,0.298,-34.973,5.676,0.977
-0.189,0.073,0.194,-46.021,30.762,-6.897
-0.213,0.139,0.086,-52.490,53.162,-15.320
-0.248,0.149,0.073,-46.143,64.819,-21.667
-0.253,0.157,0.120,-35.583,65.308,-27.466
-0.286,0.171,0.173,-27.283,57.434,-32.043
-0.336,0.132,0.216,-21.179,50.903,-37.048
-0.280,0.136,0.191,-18.494,54.382,-44.739
-0.246,0.153,0.235,-13.733,63.538,-51.392
-0.193,0.203,0.363,-6.775,79.895,-57.922
-0.174,0.243,0.524,-1.648,102.478,-63.660
-0.210,0.277,0.655,-0.610,123.047,-67.749
-0.245,0.286,0.759,-1.709,138.489,-73.181
-0.250,0.240,0.794,-1.587,145.203,-79.834
-0.204,0.257,0.839,0.671,135.803,-86.365
-0.148,0.242,0.962,11.597,107.971,-88.867
-0.085,0.246,1.127,24.841,68.604,-85.571
-0.072,0.264,1.357,33.691,32.410,-79.651
-0.062,0.223,1.558,35.583,15.442,-74.890
-0.048,0.243,1.635,24.902,20.020,-73.364
-0.015,0.236,1.593,9.277,39.551,-75.073
0.013,0.236,1.472,-1.709,58.167,-77.820
0.024,0.241,1.371,-5.127,61.035,-78.796
0.232,0.238,1.509,0.183,33.752,-70.862
0.140,0.298,1.395,5.188,-2.136,-53.528
0.076,0.222,1.496,27.222,2.625,-62.195
0.171,0.197,1.710,32.959,5.493,-56.885
0.141,0.174,1.808,27.161,18.188,-52.551
0.050,0.187,1.905,17.029,25.940,-47.302
0.044,0.118,1.918,13.184,30.334,-45.349
0.014,0.093,1.832,11.902,26.489,-44.617
0.183,0.138,1.788,17.212,9.949,-40.527
0.108,0.111,1.771,28.015,-26.794,-23.254
0.035,0.089,1.816,37.292,-56.152,-7.507
-0.028,0.050,1.868,43.579,-72.449,1.282
-0.059,0.081,1.830,40.039,-81.299,8.911
-0.227,0.034,1.758,32.776,-83.069,15.747
-0.299,0.043,1.670,27.710,-67.932,12.939
-0.226,-0.011,1.571,23.560,-37.659,2.441
-0.161,-0.004,1.472,18.127,-18.188,-4.272
0.007,-0.013,1.414,18.799,-7.812,-8.179
0.104,-0.033,1.373,23.743,-3.174,-10.254
0.147,-0.047,1.361,26.733,-2.625,-8.179
0.140,-0.071,1.386,31.006,-6.348,-1.892
0.025,-0.114,1.493,39.185,-12.329,3.540
-0.038,-0.150,1.680,46.753,-13.123,1.099
0.032,-0.102,1.761,43.030,-7.141,-2.014
-0.028,-0.174,1.634,29.846,-4.211,1.953
-0.090,-0.181,1.445,19.653,1.404,-4.028
-0.018,-0.145,1.303,16.785,-1.038,-6.714
0.023,-0.080,1.246,24.109,-20.081,0.183
0.021,-0.089,1.267,37.720,-39.307,9.277
0.089,-0.028,1.397,44.861,-43.701,14.771
0.130,-0.066,1.379,32.898,-24.719,17.822
-0.222,-0.139,1.034,11.108,9.827,13.184
-0.317,-0.188,1.027,9.338,41.443,0.977
-0.200,-0.149,1.382,40.466,26.550,-11.597
-0.122,-0.143,1.695,60.730,-11.597,-6.409
-0.614,-0.534,4.000,-3.113,-0.854,-1.038
0.435,0.682,0.066,-175.598,74.951,-24.841
0.478,0.133,0.774,-48.218,9.033,-31.921
0.043,-0.158,1.195,15.015,-18.311,1.587
-0.100,0.084,0.960,3.479,-16.907,11.414
0.018,0.035,0.932,4.822,-9.521,7.080
-0.040,-0.030,1.015,9.705,-6.348,10.986
-0.091,-0.084,0.989,4.517,-2.808,12.878
-0.017,-0.089,0.999,0.183,-0.488,8.728
0.010,-0.066,1.005,-2.319,-1.404,5.310
0.003,-0.032,0.978,-5.493,-2.197,5.432
-0.031,-0.031,0.990,-6.592,-2.380,6.775
-0.036,-0.002,0.981,-7.263,-1.709,6.897
-0.030,0.004,0.970,-6.409,-1.099,6.042
-0.022,0.015,0.977,-4.150,-0.793,5.615
-0.039,0.019,0.966,-2.014,-0.122,5.432
-0.037,0.016,0.967,0.366,0.183,5.615
-0.034,0.002,0.981,2.136,0.305,5.554
-0.022,-0.004,0.978,3.052,-0.183,5.249
-0.020,-0.012,0.974,3.479,-0.671,4.883
-0.022,-0.007,0.982,3.540,-0.977,4.700
-0.028,-0.012,0.985,3.845,-1.465,4.333
-0.027,-0.005,0.985,3.418,-1.526,3.906
-0.027,-0.007,0.984,3.113,-1.404,3.784
-0.022,-0.000,0.981,2.258,-0.977,3.906
-0.022,0.003,0.973,1.953,-0.488,3.784
-0.022,-0.001,0.979,2.441,-0.061,3.967
-0.016,-0.004,0.977,2.808,-0.061,3.784
-0.011,-0.004,0.974,3.357,-0.244,3.540
-0.006,-0.000,0.973,3.723,-0.183,3.357
-0.008,0.000,0.978,4.517,-0.793,3.052

-0.174,-0.063,1.002,5.981,0.549,2.747
-0.167,-0.052,1.011,2.808,1.099,-0.122
-0.133,-0.051,0.951,1.831,3.296,-2.380
-0.136,-0.070,0.931,2.441,3.418,-2.563
-0.145,-0.078,0.928,2.258,1.221,-1.282
-0.139,-0.071,0.955,0.793,0.305,-1.038
-0.144,0.000,0.756,-2.991,1.038,-1.404
0.064,-0.260,1.049,-2.502,3.296,-4.028
0.256,0.156,0.582,-19.226,0.305,1.465
0.144,-0.068,0.626,-1.282,-8.362,14.099
0.016,-0.131,0.842,13.550,-9.277,17.822
-0.001,-0.069,0.740,-4.578,-11.536,16.113
-0.021,-0.096,0.669,-10.376,-20.752,15.381
0.077,-0.104,0.515,-12.756,-29.236,13.184
0.062,-0.094,0.386,-15.015,-43.091,15.198
0.042,-0.104,0.341,-10.925,-55.115,17.822
0.021,-0.128,0.347,-5.676,-64.087,18.433
0.007,-0.138,0.315,-4.089,-74.585,19.104
0.035,-0.116,0.245,-4.822,-84.167,19.470
0.082,-0.096,0.210,-4.395,-90.820,20.264
0.109,-0.078,0.225,-3.662,-91.431,22.766
0.137,-0.059,0.248,-7.019,-85.144,25.940
0.136,-0.058,0.258,-14.343,-74.097,28.687
0.102,-0.057,0.227,-24.597,-59.265,30.762
0.072,-0.046,0.168,-35.095,-43.457,30.151
0.061,-0.061,0.102,-41.626,-32.043,28.442
0.003,-0.073,0.033,-45.349,-26.733,27.283
-0.020,-0.030,0.021,-46.082,-21.729,23.987
-0.014,0.000,0.082,-42.358,-14.709,19.104
0.043,0.030,0.136,-39.612,-10.132,14.465
0.037,0.047,0.181,-37.964,-11.902,13.123
-0.012,0.079,0.261,-35.950,-15.137,13.489
-0.024,0.079,0.370,-34.424,-13.794,12.390
-0.081,0.103,0.474,-37.292,-4.944,12.451
-0.123,0.107,0.502,-46.692,15.198,10.376
-0.206,0.119,0.468,-59.692,45.288,3.723
-0.257,0.122,0.359,-71.045,76.416,-5.737
-0.192,0.167,0.205,-76.355,96.741,-16.724
-0.089,0.236,0.146,-68.054,96.619,-23.071
-0.066,0.257,0.205,-48.279,79.102,-21.301
-0.144,0.263,0.333,-27.832,55.176,-15.320
-0.257,0.245,0.519,-11.108,37.476,-11.414
-0.371,0.207,0.744,-2.380,30.457,-11.353
-0.559,0.147,0.849,-6.226,33.142,-15.564
-0.653,0.141,0.817,-16.602,47.852,-28.381
-0.631,0.110,0.776,-23.132,68.481,-44.067
-0.570,0.128,0.792,-24.292,83.252,-58.777
-0.462,0.162,0.849,-20.874,89.844,-69.397
-0.448,0.154,0.920,-15.930,86.365,-74.768
-0.445,0.160,0.930,-14.343,76.538,-79.895
-0.366,0.178,0.917,-11.108,63.416,-87.463
-0.229,0.178,0.947,-3.113,46.509,-92.957
-0.093,0.214,1.002,4.578,32.288,-95.093
0.012,0.262,1.063,9.216,27.039,-93.079
-0.002,0.273,1.174,12.756,26.855,-86.548
-0.085,0.245,1.245,11.902,29.785,-79.712
-0.193,0.241,1.245,6.653,37.964,-78.064
-0.236,0.214,1.231,2.991,48.401,-81.604
-0.172,0.181,1.210,1.648,53.833,-88.379
-0.070,0.151,1.169,0.793,51.697,-94.055
0.042,0.154,1.106,3.235,44.067,-93.445
0.500,0.213,1.312,9.583,26.611,-85.754
0.097,0.310,1.153,13.794,-17.700,-56.824
0.105,0.255,1.076,34.668,-22.339,-53.406
0.211,0.230,1.342,57.007,-13.000,-58.472
0.299,0.243,1.564,59.509,-15.686,-44.250
0.072,0.211,1.573,47.913,-29.663,-15.808
-0.147,0.118,1.458,39.551,-30.090,-1.587
-0.014,0.133,1.443,43.823,-18.005,-6.592
0.084,0.166,1.489,59.204,-28.442,-6.714
-0.135,0.022,1.609,78.003,-60.730,2.014
-0.084,0.039,1.764,86.426,-76.843,1.892
-0.134,0.054,1.798,79.834,-79.468,8.362
-0.303,-0.005,1.682,64.758,-73.242,16.907
-0.436,-0.023,1.534,52.490,-45.837,9.155
-0.456,-0.094,1.480,49.500,-11.902,-7.874
-0.313,-0.094,1.517,53.955,10.681,-25.818
-0.145,-0.094,1.533,57.922,12.390,-33.997
-0.007,-0.050,1.511,61.340,0.183,-31.311
0.010,-0.052,1.527,70.374,-12.512,-25.024
-0.049,-0.108,1.694,83.191,-27.344,-18.616
-0.127,-0.120,1.889,85.266,-41.077,-13.855
-0.216,-0.117,2.027,71.533,-42.419,-11.353
-0.187,-0.131,1.930,42.847,-17.029,-17.273
-0.174,-0.168,1.655,-0.183,32.288,-30.518
-0.167,-0.125,1.368,-27.832,69.702,-45.166
0.031,-0.052,1.207,-26.917,83.679,-53.406
0.103,-0.020,1.172,-11.169,72.815,-48.401
0.180,-0.026,1.312,9.766,50.964,-35.889
0.038,-0.172,1.383,29.846,23.987,-13.306
-0.145,-0.195,1.482,42.786,-3.418,-5.920
0.091,-0.130,1.390,33.813,-4.028,-1.526
0.067,-0.101,1.311,24.719,-12.207,5.310
0.112,-0.100,1.211,24.963,-19.348,11.108
0.065,-0.122,1.166,28.137,-20.813,13.428
0.048,-0.096,1.186,31.799,-21.606,11.597
0.077,-0.127,1.185,33.447,-16.541,10.193
-1.967,-1.438,3.895,22.888,-4.272,7.324
-0.122,1.160,1.785,-176.453,132.263,-31.799
