aX,aY,aZ,gX,gY,gZ
0.003,-0.039,1.001,-0.183,0.671,0.549
-0.023,-0.059,1.008,-3.357,-0.183,-1.953
-0.007,-0.065,0.977,-4.211,-2.380,-4.578
-0.004,-0.022,0.985,-2.991,-6.531,-6.226
0.104,-0.178,1.294,-0.671,-8.118,-4.944
-0.033,0.012,0.878,-2.441,-20.874,-3.540
-0.120,-0.013,0.879,3.601,-21.301,-3.052
0.108,-0.021,1.048,2.441,8.240,-2.258
0.092,-0.046,0.966,3.174,3.418,-2.686
0.056,-0.047,0.964,4.089,-3.357,-3.052
0.174,-0.036,1.000,3.174,4.578,-3.418
0.143,-0.020,0.975,3.540,0.610,-3.967
0.164,-0.009,0.976,3.906,-0.671,-4.272
0.211,0.026,0.980,3.601,1.892,-3.845
0.213,0.019,0.986,3.845,0.122,-2.625
0.167,0.008,0.988,4.028,-0.366,-0.671
0.172,-0.005,0.982,3.967,0.366,1.526
0.147,-0.010,0.973,3.845,-0.183,2.563
0.145,-0.019,0.982,3.601,0.183,3.662
0.116,-0.015,0.965,3.723,-0.305,4.761
0.150,-0.023,0.988,3.235,1.404,6.104
0.117,0.006,0.979,3.235,-0.549,8.057
0.131,0.004,0.986,2.869,0.122,10.986
0.123,-0.019,0.984,2.747,0.183,13.184
0.097,-0.032,0.983,2.808,0.122,14.832
0.087,-0.047,0.975,2.930,-0.305,15.503
0.073,-0.060,0.977,2.869,-0.122,15.320
0.073,-0.055,0.980,2.991,-0.427,14.221
0.078,-0.048,0.984,2.869,0.732,13.672
0.046,-0.057,0.981,3.113,0.366,13.184
0.053,-0.052,0.987,2.991,1.648,13.000
0.037,-0.060,0.984,2.808,1.282,13.123
0.005,-0.074,0.985,3.113,0.427,13.184
0.013,-0.066,0.987,3.418,0.000,12.695
-0.023,-0.046,0.975,3.540,-1.038,11.902
-0.008,-0.025,0.985,3.357,-0.061,10.498
-0.002,-0.015,0.987,3.723,-0.793,10.376
-0.042,0.005,0.986,3.784,-2.319,11.536
-0.006,0.010,0.987,3.845,-0.305,13.733
-0.045,-0.014,0.976,4.211,-0.977,16.174
-0.067,-0.034,0.979,4.517,-2.014,17.517
-0.077,-0.041,0.977,4.456,-1.465,17.395
-0.080,-0.049,0.985,4.028,-0.549,16.541
-0.044,-0.055,0.985,4.089,-0.977,15.503
-0.131,-0.053,0.983,4.700,-3.662,14.832
-0.092,-0.047,0.960,4.028,-0.488,12.695
-0.068,-0.032,0.999,3.784,1.831,11.658
-0.085,0.009,0.974,4.150,-0.305,11.963
-0.068,-0.006,0.986,4.578,0.610,13.184
-0.083,0.017,0.976,4.272,1.404,13.855
-0.007,-0.005,1.023,4.028,3.052,14.343
-0.122,0.008,0.961,4.272,-1.404,14.404
-0.099,-0.035,0.981,4.211,1.038,14.709
-0.021,-0.077,1.064,3.418,9.949,13.306
-0.038,-0.058,0.961,3.723,3.784,9.216
-0.136,-0.024,0.986,4.883,-5.859,7.141
-0.016,0.001,0.986,4.028,1.831,6.287
-0.031,0.044,0.984,4.456,-3.113,5.859
-0.064,0.078,0.968,4.700,-5.066,7.141
-0.005,0.062,0.998,4.150,-2.136,8.972
-0.160,0.023,0.961,4.089,-3.784,10.986
0.045,0.020,0.986,3.052,4.028,12.390
-0.050,0.008,0.986,3.662,-1.221,13.977
-0.079,-0.020,0.979,4.150,-4.700,15.137
-0.098,-0.030,0.978,3.723,-3.296,14.099
-0.053,-0.031,0.983,3.418,-0.366,12.939
-0.076,-0.025,0.985,3.601,-1.526,11.292
-0.082,-0.009,0.979,3.845,-2.075,10.498
-0.024,0.005,0.989,3.540,-0.977,10.254
-0.042,-0.000,0.987,4.028,-4.089,10.681
-0.058,-0.000,0.983,4.150,-6.165,11.475
-0.056,-0.004,0.973,3.967,-5.432,11.902
-0.037,-0.002,0.972,3.540,-2.686,12.146
-0.025,-0.008,0.988,3.601,-0.427,12.817
-0.007,-0.011,0.988,3.540,0.549,13.733
-0.017,-0.055,0.981,3.967,-1.160,13.733
-0.031,-0.069,0.979,4.028,-1.831,12.817
-0.027,-0.029,0.970,4.028,-1.343,11.047
-0.065,-0.029,0.981,3.601,1.892,10.498
-0.010,-0.068,1.010,3.052,6.531,9.399
-0.041,-0.043,0.987,3.235,-1.892,6.714
-0.043,-0.050,0.980,3.601,-2.686,6.714
-0.029,-0.039,0.977,3.418,-1.770,6.714
-0.033,-0.026,0.981,3.967,-2.808,6.775
-0.039,-0.017,0.986,4.333,-2.625,7.202
-0.031,-0.008,0.977,4.028,-1.587,7.568
-0.025,-0.004,0.984,4.150,-0.610,7.751
-0.010,-0.005,0.987,4.272,-0.671,7.812
-0.023,-0.007,0.988,4.822,-2.991,8.789
-0.018,-0.005,0.980,4.761,-3.479,10.071
-0.036,-0.039,0.981,4.639,-3.601,11.047
-0.075,-0.053,0.968,4.395,-3.113,10.864
-0.059,-0.041,0.988,3.906,1.160,8.911
0.019,-0.019,0.986,3.357,4.028,6.348
-0.033,-0.004,0.982,3.906,-1.526,6.042
0.006,-0.010,0.984,3.906,-0.244,6.836
0.008,-0.009,0.997,4.211,-0.305,7.935
-0.041,-0.029,0.975,4.333,-2.991,8.606
-0.010,-0.029,0.982,3.845,-0.793,7.935
0.006,-0.025,0.983,3.906,0.183,7.019
-0.010,-0.012,0.987,4.272,-1.770,6.104
-0.005,-0.021,0.983,4.272,-1.953,5.981
-0.014,-0.031,0.991,4.089,-1.709,6.226
-0.036,-0.052,0.978,4.150,-2.563,5.859
-0.066,-0.045,0.978,3.906,-2.625,4.578
-0.058,-0.020,0.982,3.479,-1.099,2.869
-0.065,-0.021,0.985,3.784,-1.953,1.221
-0.150,-0.006,1.013,4.211,-4.700,-1.160
-0.021,-0.097,0.949,5.127,-7.812,-5.798
-0.017,-0.015,0.983,4.944,-4.150,-4.150
-0.021,0.025,0.987,4.272,-2.319,-1.099
-0.025,0.034,0.981,4.456,-2.258,1.404
-0.031,0.047,0.976,3.906,-1.587,3.601
-0.019,0.020,0.984,3.540,0.244,6.714
-0.015,-0.015,0.994,3.540,0.610,9.033
-0.045,-0.022,0.977,3.662,-1.343,10.620
-0.060,-0.036,0.980,3.784,-0.793,11.536
-0.043,-0.031,0.984,3.357,1.282,11.963
-0.067,-0.010,0.980,3.296,1.343,12.878

-0.001,-0.035,0.994,5.005,-1.648,4.333
0.000,-0.043,1.004,3.784,-2.441,4.456
0.008,-0.059,1.004,2.075,-2.991,3.540
0.042,-0.061,1.021,-0.793,-4.028,1.953
0.128,-0.060,1.005,-4.089,-6.165,0.732
0.289,-0.128,0.846,-5.371,-9.705,1.343
0.092,-0.085,0.908,-7.263,-17.517,-0.366
0.129,0.093,0.815,-2.686,-25.330,-5.005
0.368,-0.062,1.038,4.333,10.437,6.531
0.124,-0.022,0.934,3.296,-2.625,5.615
0.206,-0.047,1.003,3.540,-1.099,4.272
0.234,-0.020,0.980,2.808,2.991,2.686
0.168,-0.024,0.977,3.479,-2.136,2.319
0.230,-0.014,0.982,3.235,0.732,1.831
0.179,-0.021,0.984,3.296,-1.160,1.648
0.184,-0.032,0.978,3.174,-1.892,1.892
0.169,-0.020,0.985,3.235,-1.953,1.526
0.169,-0.022,0.982,3.174,-2.258,1.465
0.145,-0.039,0.987,3.418,-2.319,1.526
0.126,-0.055,0.977,3.540,-2.869,0.977
0.106,-0.070,0.984,3.357,-2.563,-0.122
0.078,-0.082,0.977,3.540,-2.930,-1.526
0.065,-0.052,0.984,3.479,-2.686,-2.869
0.093,-0.002,0.978,3.418,-2.136,-3.113
0.111,0.037,0.991,3.113,-1.709,-1.038
0.089,0.037,0.973,3.540,-1.953,3.845
0.072,0.006,0.981,3.967,-1.343,8.545
0.031,-0.042,0.983,3.784,-1.343,12.329
0.024,-0.056,0.980,3.540,-0.427,13.916
0.007,-0.044,0.987,3.296,1.099,13.733
0.009,-0.041,0.980,3.418,1.831,13.306
-0.012,-0.050,0.979,3.662,1.709,12.390
-0.015,-0.064,0.975,3.906,0.854,10.864
-0.053,-0.086,0.991,4.028,0.427,8.850
0.025,-0.089,1.026,3.113,7.263,5.493
0.100,-0.039,0.988,3.052,4.456,2.380
-0.186,-0.022,0.897,5.310,-17.151,2.502
0.118,-0.002,1.033,3.235,7.446,4.089
0.026,0.023,0.960,3.967,1.709,6.470
-0.027,0.006,0.968,4.700,-3.723,9.094
0.001,-0.034,0.992,3.601,6.226,10.315
0.008,-0.087,1.040,2.991,9.155,8.301
0.022,-0.131,0.976,3.174,6.287,3.784
-0.085,-0.083,0.966,4.211,-12.451,-1.709
0.010,-0.023,0.975,3.723,-2.441,-2.502
0.032,0.004,0.982,3.601,-0.854,-2.136
0.025,0.037,0.987,3.662,-3.174,-0.244
-0.000,0.047,0.975,3.906,-4.272,2.625
0.004,0.041,0.982,3.479,-2.075,5.493
0.032,0.033,0.989,3.113,-0.183,8.484
0.004,0.021,0.976,3.174,-1.282,11.597
0.009,-0.004,0.986,3.052,-0.061,13.733
0.014,-0.044,0.989,3.052,-0.305,14.282
-0.026,-0.075,0.977,3.479,-3.113,12.878
-0.038,-0.101,0.981,3.662,-3.296,9.705
-0.034,-0.106,0.975,3.967,-3.967,6.226
-0.030,-0.094,0.983,4.089,-3.845,2.075
-0.021,-0.056,0.982,4.395,-4.639,-1.404
0.017,0.021,0.975,4.639,-4.333,-2.869
0.045,0.089,0.990,4.700,-3.296,-1.343
0.054,0.104,0.991,4.944,-3.601,3.052
0.026,0.093,0.979,4.822,-4.639,8.118
0.003,0.050,0.978,4.822,-4.272,13.184
-0.008,0.014,0.990,4.761,-3.296,16.724
-0.033,-0.041,0.991,5.249,-4.028,18.555
-0.062,-0.061,0.973,5.432,-5.127,18.555
-0.066,-0.082,0.983,4.944,-3.052,16.724
-0.056,-0.103,0.981,4.456,-1.221,14.404
-0.095,-0.139,0.985,4.517,-2.869,11.658
-0.123,-0.127,0.976,4.578,-3.784,8.118
-0.096,-0.076,0.984,4.456,-3.113,4.333
-0.068,-0.015,0.987,4.333,-3.418,2.563
-0.052,0.015,0.973,4.211,-4.700,3.235
-0.038,0.043,0.974,3.845,-4.456,6.104
-0.024,0.067,0.984,3.784,-3.357,9.460
-0.024,0.030,0.983,3.845,-3.723,13.123
-0.050,0.002,0.987,4.028,-4.578,16.418
-0.073,-0.021,0.982,3.967,-4.822,17.578
-0.071,-0.021,0.978,3.235,-3.418,18.005
-0.067,-0.015,0.973,2.930,-1.831,18.188
-0.078,-0.051,0.992,3.174,-1.526,18.799
-0.096,-0.076,0.986,3.662,-2.075,18.677
-0.101,-0.080,0.987,3.845,-3.662,16.663
-0.104,-0.063,0.993,3.967,-5.493,14.160
-0.092,-0.010,0.993,4.028,-7.263,12.634
-0.052,0.049,0.986,3.601,-7.996,13.550
-0.040,0.038,0.983,3.845,-9.216,16.846
-0.082,-0.005,0.979,4.456,-9.766,20.935
-0.089,-0.028,0.970,4.272,-8.179,22.766
-0.093,-0.036,0.979,4.272,-5.798,22.644
-0.091,-0.042,0.981,3.784,-4.333,21.667
-0.098,-0.041,0.985,3.662,-3.418,20.508
-0.091,-0.025,0.968,3.479,-2.930,19.470
-0.102,-0.019,0.976,3.418,-2.014,18.860
-0.107,-0.018,0.976,3.723,-0.977,18.738
-0.102,-0.013,0.978,3.418,-0.122,18.127
-0.115,-0.017,0.994,3.479,-0.244,17.517
-0.094,-0.011,1.000,3.845,-1.831,16.907
-0.096,0.017,0.997,3.601,-5.249,16.724
-0.097,0.039,0.972,3.296,-8.118,17.761
-0.119,0.010,0.977,3.235,-6.653,20.264
-0.118,-0.021,0.982,2.991,-3.540,21.790
-0.128,-0.043,0.975,2.502,-1.709,21.912
-0.125,-0.032,0.960,2.380,-0.549,20.630
-0.124,-0.039,0.973,2.563,1.465,19.104
-0.122,-0.037,0.978,2.991,2.808,17.883
-0.117,-0.036,0.981,3.357,2.625,16.785
-0.123,-0.030,0.981,3.296,2.808,15.747
-0.116,-0.022,0.983,3.601,4.028,14.832
-0.109,-0.021,0.986,3.418,4.700,14.038
-0.111,-0.019,0.996,3.418,3.479,13.672
-0.104,-0.020,0.998,3.784,0.854,13.611
-0.114,0.007,0.990,3.723,-2.808,13.794
-0.099,0.036,0.984,4.150,-5.249,15.076
-0.113,0.021,0.973,4.089,-5.798,17.395
-0.136,-0.020,0.955,4.150,-4.150,19.104
-0.151,-0.054,0.966,3.540,-0.427,18.372
-0.127,-0.057,0.980,3.174,3.174,16.113
-0.116,-0.042,0.987,3.357,3.113,13.794

-0.014,-0.042,0.989,-0.366,1.160,-0.854
-0.020,-0.044,0.997,-0.610,-0.977,-2.319
-0.021,-0.063,0.998,-0.854,-2.930,-3.723
0.003,-0.065,0.997,-0.916,-6.104,-5.615
0.072,-0.042,0.897,-0.977,-9.033,-7.324
0.183,0.015,1.059,-0.244,-9.033,-7.507
0.087,-0.038,0.888,-1.648,-23.865,-6.409
0.118,-0.073,0.944,0.427,-11.108,-5.066
0.236,-0.051,1.001,2.686,1.465,-4.639
0.209,-0.024,0.975,3.540,0.000,-4.700
0.240,-0.020,0.978,3.723,-0.305,-5.310
0.259,0.000,0.981,3.540,1.831,-5.371
0.250,0.001,0.980,3.357,1.099,-4.700
0.209,-0.081,0.997,2.808,0.488,-6.042
0.240,-0.033,0.973,2.625,0.183,-6.958
0.272,0.011,0.986,2.991,1.099,-4.761
0.241,-0.011,0.982,3.418,-0.305,-1.770
0.214,-0.047,0.987,3.235,-0.610,0.427
0.206,-0.040,0.979,3.113,-0.610,1.648
0.211,0.001,0.982,3.113,-0.671,2.686
0.217,-0.020,0.981,3.113,-0.610,5.005
0.167,-0.038,0.981,2.991,-1.465,5.981
0.148,-0.059,0.989,3.235,-1.038,6.531
0.109,-0.077,0.976,3.296,-1.038,5.371
0.074,-0.078,0.983,3.479,-0.854,3.113
0.056,-0.067,0.982,3.357,-0.305,0.244
0.046,-0.030,0.973,2.991,-0.732,-2.136
0.028,-0.002,0.977,3.052,-1.526,-2.625
0.032,0.016,0.986,3.418,-1.770,-1.648
0.017,0.009,0.979,3.784,-2.319,0.000
-0.006,-0.008,0.981,3.845,-2.136,1.587
-0.029,-0.016,0.973,3.479,-1.648,2.930
-0.032,0.003,0.997,3.296,-1.465,4.333
-0.003,0.023,0.975,3.113,-0.854,6.836
-0.015,0.031,0.975,3.479,0.000,10.071
-0.032,-0.003,0.996,4.150,1.526,13.184
-0.069,-0.059,0.975,4.089,0.977,13.977
-0.075,-0.068,0.986,3.845,2.197,13.184
-0.071,-0.057,0.984,3.784,2.563,11.230
-0.049,-0.050,0.986,3.906,2.380,9.521
-0.185,-0.080,0.948,3.845,3.052,8.240
0.165,-0.071,1.045,2.747,10.620,6.104
-0.129,-0.002,0.951,4.456,-5.371,4.700
-0.028,0.004,0.980,4.089,-3.113,5.005
0.074,0.030,0.999,3.052,6.531,5.310
-0.064,0.044,0.962,4.089,-2.869,7.141
-0.002,0.016,1.001,3.357,3.662,8.667
0.105,0.033,0.997,2.808,5.676,9.216
-0.052,0.022,0.958,4.333,-9.216,11.230
-0.035,-0.005,0.964,3.906,-2.197,13.367
-0.061,-0.062,0.987,2.930,6.287,13.306
0.082,-0.082,1.010,2.869,4.333,10.132
-0.052,-0.056,0.971,3.601,-10.681,7.019
-0.050,-0.062,0.964,3.479,-7.751,5.981
-0.005,-0.062,0.994,3.052,1.038,5.005
-0.015,-0.054,0.983,3.113,-0.549,3.113
-0.001,-0.030,0.980,3.052,-2.258,1.465
0.019,0.023,0.980,2.991,-3.845,0.610
0.035,0.030,0.988,3.784,-5.188,1.953
0.032,0.032,0.979,4.211,-6.531,4.272
0.027,0.024,0.981,4.578,-6.714,6.348
0.019,0.002,0.992,5.127,-6.958,8.362
0.026,-0.001,0.972,5.066,-6.775,8.972
0.033,-0.001,0.978,4.822,-6.470,9.583
0.022,-0.021,0.991,4.883,-6.470,10.071
0.003,-0.077,0.988,5.371,-7.629,10.071
-0.038,-0.120,0.988,5.798,-8.606,8.484
-0.061,-0.135,0.982,5.615,-7.935,4.456
-0.047,-0.079,0.976,5.188,-6.287,0.183
-0.003,-0.012,0.991,5.066,-6.165,-2.502
0.001,0.011,0.991,5.127,-8.423,-2.625
-0.021,0.012,0.980,5.127,-11.475,-1.221
-0.019,0.058,0.965,4.883,-11.597,0.732
0.016,0.105,0.969,4.395,-8.423,4.211
0.032,0.111,0.993,4.089,-5.432,10.193
0.027,0.073,0.995,3.723,-5.615,16.357
-0.010,0.007,0.993,3.845,-7.996,20.874
-0.054,-0.049,0.992,3.967,-10.559,22.156
-0.094,-0.096,0.983,4.272,-11.047,20.935
-0.090,-0.099,0.982,3.845,-9.583,18.250
-0.069,-0.071,0.980,3.479,-8.972,15.259
-0.065,-0.043,0.975,3.784,-9.644,13.489
-0.060,-0.031,0.973,3.967,-9.399,13.062
-0.081,-0.039,0.983,4.211,-7.324,13.611
-0.078,-0.035,0.973,3.784,-4.639,13.672
-0.044,0.029,0.961,3.296,-1.953,13.245
-0.016,0.099,0.991,2.869,-0.122,15.198
0.013,0.118,0.983,3.052,0.244,20.142
-0.020,0.083,0.996,3.662,-0.732,26.062
-0.036,0.045,0.999,3.235,-1.465,30.457
-0.058,-0.036,0.995,2.869,-2.075,32.043
-0.080,-0.057,0.989,2.319,-3.052,31.128
-0.084,-0.063,0.993,2.991,-4.822,28.442
-0.076,-0.037,0.987,3.113,-6.226,26.428
-0.076,-0.011,0.978,2.930,-7.507,24.597
-0.108,-0.015,0.971,3.113,-7.263,24.536
-0.124,-0.009,0.973,2.563,-5.249,24.475
-0.123,-0.023,0.979,2.441,-2.808,24.536
-0.119,-0.030,0.968,2.258,-1.099,24.170
-0.124,-0.033,0.968,2.197,-0.183,23.743
-0.125,-0.040,0.980,2.319,0.854,23.376
-0.142,-0.035,0.978,2.441,0.793,22.705
-0.149,-0.042,0.971,2.319,0.793,22.095
-0.156,-0.039,0.966,2.380,2.441,21.545
-0.148,-0.039,0.963,2.747,4.578,21.240
-0.137,-0.042,0.977,2.808,7.263,20.691
-0.123,-0.034,0.999,2.869,9.094,20.081
-0.117,-0.007,0.990,2.808,7.996,19.775
-0.099,0.051,0.930,3.052,6.226,19.897
-0.122,0.035,0.967,5.188,6.836,21.545
-0.097,0.029,0.987,4.883,9.888,23.865
-0.127,-0.000,0.997,4.456,9.460,26.062
-0.140,-0.022,0.994,3.967,8.118,27.405
-0.165,-0.063,0.994,3.235,6.775,27.527
-0.195,-0.084,0.993,2.502,5.859,27.039
-0.215,-0.074,0.987,2.502,3.113,25.452
-0.238,-0.068,0.981,2.686,1.343,24.170
-0.242,-0.048,0.983,2.319,0.793,23.254
-0.233,-0.030,0.965,2.197,-0.183,22.949

0.000,-0.048,0.987,1.038,3.235,-4.028
0.018,-0.057,1.000,0.305,2.563,-6.226
0.057,-0.082,0.990,-1.099,2.686,-9.094
0.092,-0.086,0.999,-2.075,1.587,-12.390
0.185,-0.061,0.971,-2.258,-2.563,-15.869
0.138,-0.104,1.024,-3.052,-4.639,-16.541
0.770,0.165,0.936,-2.991,-5.920,-17.761
0.483,0.035,1.073,1.099,-9.094,2.441
0.280,-0.004,0.885,1.221,-14.771,13.062
0.479,-0.073,1.025,2.686,4.639,13.123
0.414,-0.057,0.958,2.869,3.601,10.925
0.354,-0.187,0.997,3.235,0.671,8.301
0.330,-0.062,0.984,2.625,1.221,2.686
0.367,0.012,0.979,3.357,0.854,0.305
0.364,0.084,0.964,3.662,-0.244,0.244
0.347,0.068,0.977,3.601,-1.282,2.502
0.333,0.097,0.977,2.747,-1.526,4.944
0.294,0.079,0.980,3.174,-3.113,8.362
0.251,0.031,0.979,3.357,-3.662,11.963
0.201,-0.018,0.984,3.113,-4.028,14.526
0.154,-0.050,0.972,2.991,-4.639,15.259
0.094,-0.094,0.984,3.113,-4.639,15.015
0.051,-0.113,0.980,3.723,-3.967,13.855
0.006,-0.104,0.985,3.906,-3.540,11.047
0.017,-0.043,0.974,3.601,-2.991,8.118
0.027,0.000,0.999,3.357,-2.502,7.446
0.046,0.041,0.986,3.479,-2.441,9.338
0.021,0.058,0.965,3.784,-1.770,12.146
0.004,0.036,0.987,4.089,-0.916,15.198
-0.057,0.000,0.992,4.211,-0.732,17.517
-0.057,-0.014,0.985,4.272,0.977,18.921
-0.079,-0.027,0.982,4.211,1.160,19.226
-0.105,-0.051,0.984,4.272,0.916,19.287
-0.109,-0.075,0.981,4.333,0.610,18.616
-0.207,-0.128,0.957,4.517,0.061,16.907
0.097,-0.131,1.105,3.174,11.292,11.902
-0.101,-0.093,0.937,4.272,0.000,7.141
-0.158,-0.043,0.911,5.188,-16.541,5.127
0.092,0.016,1.023,3.601,5.310,5.798
0.035,0.049,0.976,3.845,-2.319,8.667
0.022,0.039,0.977,3.967,-6.897,12.268
0.032,0.039,0.978,3.418,-3.662,15.015
-0.014,0.003,0.969,2.869,-2.319,17.517
0.034,-0.042,0.998,2.625,2.136,18.494
0.046,-0.057,0.997,3.113,0.000,18.066
-0.022,-0.075,0.974,3.723,-5.249,16.968
0.001,-0.068,0.981,3.967,-3.052,14.526
-0.065,-0.075,0.963,4.150,-0.183,11.536
0.075,-0.048,1.004,3.967,3.723,8.850
-0.013,-0.030,0.975,4.700,-3.113,7.141
-0.010,-0.009,0.965,5.066,-4.211,5.493
0.051,0.032,0.993,4.822,-0.183,5.737
0.063,0.061,0.993,4.944,-1.892,7.507
0.048,0.064,0.977,5.310,-5.005,10.559
0.035,0.038,0.991,5.127,-5.554,14.404
0.032,0.025,0.979,4.639,-5.920,17.700
0.006,-0.041,0.997,4.639,-7.385,20.386
-0.053,-0.110,0.998,4.822,-11.047,21.362
-0.080,-0.137,0.995,4.517,-14.893,18.799
-0.101,-0.152,0.979,4.395,-16.968,14.893
-0.130,-0.144,0.969,4.395,-16.785,10.376
-0.136,-0.109,0.961,4.089,-13.062,6.104
-0.103,-0.079,0.964,4.028,-7.385,2.686
-0.073,-0.036,0.975,3.723,-3.662,1.343
-0.047,0.021,0.982,3.540,-2.991,2.502
-0.035,0.053,0.985,3.906,-3.357,5.676
-0.041,0.055,0.989,4.028,-3.235,10.376
-0.041,0.064,0.977,3.723,-3.235,15.076
-0.059,0.042,0.994,3.540,-3.784,19.531
-0.082,-0.009,1.000,4.089,-5.066,23.743
-0.119,-0.051,0.999,4.456,-7.263,26.123
-0.140,-0.100,0.998,3.540,-9.705,25.818
-0.172,-0.135,0.980,3.479,-11.780,23.132
-0.206,-0.138,0.972,3.601,-13.611,19.287
-0.201,-0.112,0.968,3.662,-13.184,14.648
-0.198,-0.083,0.972,3.479,-11.841,11.108
-0.182,-0.057,0.974,3.784,-9.888,8.972
-0.166,-0.037,0.977,3.540,-7.751,7.629
-0.163,-0.020,0.975,3.235,-6.042,6.653
-0.136,-0.009,0.964,2.930,-3.357,5.920
-0.108,0.024,0.974,2.625,-0.977,6.226
-0.078,0.054,0.987,2.991,-0.488,8.545
-0.087,0.055,0.990,3.662,-1.953,13.550
-0.096,0.053,0.982,3.601,-3.113,18.127
-0.104,0.023,0.982,3.113,-3.052,21.301
-0.122,-0.020,0.992,3.052,-3.113,23.376
-0.142,-0.058,0.989,2.808,-3.906,23.621
-0.161,-0.067,0.988,2.686,-5.005,21.973
-0.154,-0.062,0.963,3.052,-5.249,19.897
-0.163,-0.019,0.947,3.540,-4.639,18.677
-0.165,-0.000,0.959,4.883,-1.343,18.799
-0.151,-0.018,0.989,4.944,2.686,19.043
-0.159,-0.004,0.989,4.822,2.625,19.409
-0.175,-0.015,0.983,4.822,1.282,20.142
-0.189,-0.012,0.974,4.272,2.808,20.691
-0.171,-0.011,0.952,3.662,5.493,21.362
-0.187,-0.021,0.973,3.967,7.690,22.278
-0.162,-0.026,0.979,3.784,9.521,22.461
-0.164,-0.015,0.985,3.906,8.972,22.888
-0.165,-0.003,0.989,4.028,6.592,23.132
-0.167,-0.015,1.001,4.639,4.150,23.804
-0.192,-0.026,0.991,4.456,0.427,24.109
-0.223,-0.041,0.979,4.333,-2.625,23.376
-0.234,-0.049,0.976,4.211,-3.113,22.400
-0.219,-0.056,0.971,3.967,-2.808,21.484
-0.208,-0.038,0.977,3.601,-2.686,20.081
-0.195,-0.039,0.978,3.479,-3.235,19.592
-0.200,-0.033,0.971,3.906,-4.333,19.592
-0.198,-0.036,0.973,3.967,-4.761,19.287
-0.217,-0.075,0.978,4.456,-4.700,19.714
-0.231,-0.093,0.960,4.211,-4.272,18.982
-0.237,-0.097,0.968,4.395,-2.869,17.029
-0.224,-0.073,0.974,4.578,-0.977,15.015
-0.211,-0.055,0.980,4.395,-0.183,13.245
-0.200,-0.067,0.981,4.456,-0.854,12.573
-0.206,-0.073,0.982,4.456,-2.136,11.841
-0.212,-0.081,0.982,4.395,-3.174,11.230
-0.209,-0.090,0.975,3.906,-3.540,10.803
-0.221,-0.085,0.975,3.662,-3.662,10.193

0.045,-0.015,0.947,-5.127,5.493,-7.568
-0.253,-0.236,1.044,-4.028,0.793,-10.803
-0.021,-0.140,0.935,-6.897,-0.244,-29.053
0.151,-0.191,1.227,-3.906,0.671,-39.001
0.418,0.039,0.828,-6.592,-8.606,-36.926
0.652,0.246,1.036,1.282,-8.301,-14.282
0.082,0.009,0.908,6.531,-19.775,15.747
0.179,-0.085,0.993,4.211,-4.639,18.127
0.357,-0.055,0.977,2.747,6.653,11.475
0.256,-0.008,0.973,3.235,-1.282,9.216
0.292,-0.021,0.981,3.479,-0.366,7.996
0.288,-0.014,0.978,3.601,-0.610,6.958
0.201,-0.207,0.975,3.906,-2.808,3.662
0.203,-0.027,0.979,3.479,-3.967,-2.686
0.312,0.003,0.994,4.089,-1.404,-0.977
0.224,0.003,0.974,3.662,-4.761,-1.343
0.251,-0.013,0.981,3.113,-3.906,-0.610
0.206,-0.028,0.983,3.479,-3.357,0.793
0.173,-0.045,0.973,3.357,-3.418,1.648
0.156,-0.045,0.983,3.174,-3.418,2.808
0.136,-0.052,0.990,2.747,-3.174,3.052
0.113,-0.059,0.972,2.380,-2.930,2.380
0.118,-0.026,0.978,2.136,-2.441,1.526
0.098,0.004,0.978,2.625,-2.991,2.014
0.104,0.026,0.985,2.930,-1.465,4.395
0.078,0.028,0.979,3.052,-0.793,8.057
0.032,-0.000,0.990,3.235,-0.305,11.230
0.010,-0.037,0.989,2.991,0.000,12.756
-0.004,-0.058,0.976,2.991,-0.122,12.634
0.006,-0.044,0.987,2.991,0.000,11.475
-0.012,-0.042,0.989,3.357,-1.343,10.681
0.009,-0.067,0.985,3.296,-0.488,10.132
-0.019,-0.096,0.990,3.296,0.183,9.644
-0.023,-0.130,0.978,3.113,-0.305,7.446
-0.035,-0.142,0.983,2.991,-0.671,3.723
-0.015,-0.089,0.983,3.540,-0.793,0.244
0.034,-0.017,0.971,3.418,0.122,-1.343
0.071,0.020,0.972,3.357,0.366,-0.183
0.075,0.043,0.982,3.235,0.061,3.723
0.102,0.036,0.986,3.357,-0.305,7.751
0.110,0.066,0.959,3.113,0.732,11.780
0.140,0.062,0.982,3.418,2.319,16.052
0.112,0.025,0.990,3.845,1.709,19.836
0.091,-0.013,0.974,3.906,1.587,21.729
0.059,-0.067,0.989,4.150,1.648,21.790
-0.174,-0.166,0.946,4.211,1.709,19.409
0.273,-0.061,1.077,2.563,13.916,13.489
0.003,-0.107,0.945,5.493,-6.348,11.841
-0.118,-0.073,0.941,5.859,-18.677,7.080
0.113,-0.041,1.006,4.150,3.601,5.371
0.026,0.035,0.962,4.639,-3.845,5.249
0.095,0.072,0.982,4.639,-2.930,9.460
0.118,0.051,0.995,4.272,-1.099,14.465
0.048,0.016,0.981,4.150,-6.104,19.226
0.037,-0.019,0.964,3.357,-4.822,22.095
0.066,-0.057,1.005,3.174,-1.953,23.071
0.023,-0.086,0.975,3.784,-6.897,22.766
-0.041,-0.112,0.963,3.967,-8.606,20.325
0.007,-0.109,0.981,3.662,-2.197,17.151
-0.038,-0.103,0.975,4.517,-1.892,14.038
-0.040,-0.065,0.975,4.333,-1.099,10.254
-0.011,0.018,0.982,4.028,0.488,7.751
0.025,0.117,0.992,4.456,-0.549,8.789
0.052,0.145,0.980,4.944,-1.587,13.733
0.024,0.118,0.992,5.432,-1.770,20.325
-0.012,0.048,0.985,5.432,-2.502,26.367
-0.060,-0.012,0.968,4.883,-3.174,28.992
-0.113,-0.067,0.982,4.761,-3.479,29.053
-0.127,-0.089,0.981,4.456,-3.479,26.733
-0.114,-0.100,0.987,4.028,-3.235,23.804
-0.103,-0.103,0.978,3.662,-3.845,20.447
-0.109,-0.113,0.978,3.723,-4.822,16.724
-0.123,-0.112,0.985,4.089,-4.272,13.000
-0.114,-0.076,0.988,4.150,-3.052,9.644
-0.098,-0.011,0.982,3.662,-3.418,8.057
-0.079,0.054,0.990,3.723,-5.371,8.118
-0.065,0.083,0.990,4.089,-6.897,11.292
-0.069,0.092,0.975,4.028,-7.141,15.991
-0.064,0.070,0.959,3.723,-4.150,20.691
-0.082,0.019,0.973,3.723,-0.610,24.536
-0.110,-0.022,0.987,3.845,1.709,26.672
-0.110,-0.026,0.995,3.235,1.526,27.283
-0.102,-0.022,0.999,3.540,-0.916,27.466
-0.114,-0.016,0.993,3.845,-4.517,27.649
-0.127,-0.013,0.982,3.784,-7.385,28.015
-0.128,-0.022,0.962,3.784,-7.568,29.175
-0.156,-0.097,0.978,4.395,-5.676,30.151
-0.189,-0.125,0.971,4.089,-3.357,29.358
-0.189,-0.126,0.976,3.540,-1.404,26.733
-0.175,-0.103,0.979,3.784,0.732,23.865
-0.159,-0.078,0.973,3.845,1.465,21.790
-0.171,-0.051,0.983,3.601,0.427,21.362
-0.186,-0.040,0.981,3.296,-0.305,20.935
-0.161,-0.025,0.959,3.479,0.000,20.508
-0.159,-0.046,0.989,4.150,1.282,21.179
-0.155,-0.055,1.002,4.456,0.916,23.071
-0.176,-0.055,0.999,3.784,-2.441,24.292
-0.194,-0.055,0.972,2.869,-5.127,23.926
-0.174,-0.055,0.952,2.563,-3.723,22.888
-0.186,-0.061,0.971,3.479,-1.343,23.376
-0.206,-0.075,0.983,4.456,-0.183,24.414
-0.226,-0.085,0.984,4.700,-0.305,24.475
-0.247,-0.092,0.983,4.272,-0.793,23.437
-0.250,-0.101,0.976,4.089,-1.160,22.278
-0.251,-0.116,0.974,4.517,-1.831,20.691
-0.274,-0.119,0.983,4.822,-1.953,18.738
-0.257,-0.100,0.977,4.639,-1.526,16.418
-0.227,-0.057,0.977,4.333,-1.282,14.221
-0.216,-0.047,0.989,4.700,-1.648,13.855
-0.225,-0.023,0.985,4.395,-2.991,14.648
-0.232,-0.038,0.987,4.578,-4.333,15.808
-0.249,-0.051,0.974,4.333,-3.967,17.212
-0.259,-0.063,0.964,3.601,-2.869,17.944
-0.262,-0.055,0.969,3.601,-0.671,18.066
-0.250,-0.062,0.980,3.601,0.977,18.005
-0.233,-0.036,0.973,3.479,0.916,18.066
-0.207,-0.038,0.977,3.235,0.549,18.738
-0.215,-0.062,0.983,3.540,-0.183,19.531
-0.239,-0.106,0.978,3.601,-1.343,19.287

0.098,-0.118,0.947,-6.775,6.348,-10.193
0.044,-0.065,0.985,-4.700,0.977,-17.456
0.079,-0.043,1.028,-3.296,0.366,-20.020
0.281,0.096,0.960,-7.385,-8.911,-23.560
0.457,0.180,0.960,-0.916,-3.845,-11.780
0.247,0.167,0.940,4.700,-15.625,4.700
0.259,-0.003,0.993,4.456,-6.409,13.428
0.315,-0.068,0.968,3.418,-0.122,13.062
0.332,-0.076,0.974,3.601,-0.610,10.620
0.361,-0.066,0.975,3.601,-0.793,8.789
0.381,-0.032,0.981,3.662,-0.427,7.324
0.381,0.003,0.970,3.662,-0.916,7.324
0.369,0.012,0.978,3.784,-1.038,7.690
0.351,0.010,0.981,3.784,-0.732,8.667
0.322,-0.004,0.973,3.906,-0.549,9.766
0.322,0.006,0.978,3.418,0.122,10.742
0.354,0.017,0.980,2.808,0.061,12.390
0.331,0.008,0.968,2.563,-0.977,14.526
0.335,-0.039,0.969,2.563,-0.977,17.700
0.297,-0.073,0.983,2.502,-0.854,20.142
0.269,-0.117,0.976,2.441,0.183,20.935
0.189,-0.150,1.000,2.808,-0.305,20.081
0.169,-0.145,0.992,2.625,1.404,17.578
0.149,-0.109,0.962,3.113,0.854,15.076
0.110,-0.075,0.981,2.930,-0.854,12.695
0.092,-0.067,0.977,3.601,-1.282,11.536
0.082,-0.024,0.985,3.784,-1.526,10.254
0.090,0.006,0.981,3.235,-2.319,9.705
0.067,0.005,0.981,3.479,-3.540,10.864
0.117,0.022,0.988,3.174,-2.319,12.024
0.149,0.031,0.977,3.296,-1.038,15.015
0.140,-0.010,0.991,3.967,-2.380,21.179
0.088,-0.022,0.956,3.357,-0.244,26.184
0.023,-0.075,0.989,3.479,1.465,28.992
-0.022,-0.122,0.960,3.784,0.854,28.503
-0.028,-0.122,0.974,3.845,1.404,24.902
-0.030,-0.101,0.984,3.906,0.427,19.958
-0.012,-0.059,0.988,3.784,0.061,15.320
-0.015,-0.022,0.980,4.822,-1.526,13.306
-0.004,-0.005,0.995,4.761,-1.282,12.512
-0.010,-0.018,0.968,4.578,-1.282,13.062
-0.035,-0.018,0.986,4.333,-2.441,13.977
-0.031,-0.016,0.975,4.089,-2.441,14.954
-0.015,0.011,0.987,3.540,-2.197,16.296
-0.045,-0.013,0.974,3.601,-1.892,18.555
-0.025,-0.014,0.982,3.235,-0.854,19.287
-0.022,-0.025,0.982,3.967,-0.183,20.691
-0.041,-0.075,0.984,3.845,-0.305,20.752
-0.057,-0.095,0.979,4.028,0.427,18.677
-0.070,-0.078,0.976,4.028,0.488,15.137
-0.162,-0.055,0.973,3.845,2.869,11.658
-0.057,-0.032,1.033,2.869,11.841,7.080
0.054,0.037,0.940,4.150,8.118,5.798
-0.143,0.035,1.000,6.104,-5.554,7.751
0.009,0.043,0.971,4.822,0.549,7.996
-0.174,0.034,0.979,5.554,-4.578,10.193
-0.091,0.018,0.999,4.272,-0.366,11.841
-0.025,0.026,0.970,3.967,-0.732,13.794
-0.175,0.001,0.979,4.578,-7.874,16.785
-0.132,-0.048,0.984,3.967,-1.709,18.433
-0.096,-0.053,0.983,3.479,0.671,18.066
-0.104,-0.061,0.975,4.211,-2.747,17.883
-0.126,-0.078,0.983,4.333,-4.028,16.968
-0.147,-0.063,0.983,4.028,-3.540,14.038
-0.149,-0.021,0.983,3.540,-1.465,10.742
-0.115,0.032,0.979,2.930,1.343,8.789
-0.093,0.077,0.984,3.357,1.892,9.216
-0.079,0.103,0.992,3.601,1.160,11.536
-0.047,0.134,0.990,3.540,0.977,15.137
-0.045,0.123,0.986,3.784,0.549,19.653
-0.046,0.088,0.982,4.150,0.061,24.048
-0.089,0.028,0.990,4.272,-1.221,27.405
-0.121,-0.025,0.983,3.967,-1.465,28.015
-0.160,-0.059,0.990,4.089,-1.709,26.917
-0.178,-0.063,0.982,4.089,-2.869,23.560
-0.171,-0.056,0.985,4.028,-2.991,19.348
-0.163,-0.068,0.985,4.089,-3.113,15.259
-0.153,-0.080,0.981,3.967,-3.235,10.803
-0.182,-0.094,0.980,4.333,-4.578,6.714
-0.196,-0.068,0.985,4.333,-5.798,2.625
-0.169,-0.014,0.980,4.089,-5.066,-0.366
-0.121,0.057,0.985,4.456,-5.005,-1.343
-0.107,0.096,0.992,5.005,-7.446,0.732
-0.085,0.098,0.981,4.761,-8.179,4.517
-0.107,0.038,0.991,4.639,-7.263,7.812
-0.138,-0.010,0.983,5.005,-7.629,10.010
-0.160,-0.014,0.975,4.272,-6.897,10.193
-0.149,-0.016,0.972,3.906,-4.883,10.010
-0.163,-0.036,0.989,4.028,-4.211,10.254
-0.196,-0.092,0.993,4.028,-6.042,10.437
-0.246,-0.140,0.985,3.845,-7.202,8.911
-0.227,-0.150,0.988,2.930,-4.211,5.554
-0.142,-0.108,0.985,1.770,-1.831,1.892
-0.075,-0.063,0.968,2.930,-2.869,0.061
-0.089,-0.050,0.973,4.578,-6.287,0.000
-0.132,-0.035,0.985,5.676,-8.484,1.160
-0.166,-0.013,0.982,6.226,-9.583,2.991
-0.180,0.011,0.959,6.836,-10.864,4.639
-0.206,-0.009,0.978,8.728,-12.329,7.751
-0.214,-0.016,0.985,9.155,-12.207,10.986
-0.171,-0.011,0.982,7.507,-9.583,12.634
-0.127,-0.054,0.979,5.920,-7.080,14.465
-0.143,-0.117,0.983,5.371,-5.432,15.869
-0.143,-0.147,0.955,4.517,-2.808,15.198
-0.147,-0.167,0.963,4.028,2.014,13.428
-0.145,-0.154,0.980,4.150,5.798,12.207
-0.140,-0.086,0.980,3.784,6.714,10.376
-0.132,-0.028,0.996,4.272,6.226,9.766
-0.131,0.003,1.000,4.456,3.845,11.169
-0.147,0.003,1.003,4.639,-1.160,13.916
-0.163,-0.018,0.999,4.578,-5.859,16.418
-0.176,-0.031,0.983,4.578,-8.789,18.372
-0.172,-0.073,0.968,4.700,-10.010,19.165
-0.216,-0.115,0.970,4.395,-9.705,19.653
-0.246,-0.114,0.962,4.089,-8.301,19.470
-0.255,-0.126,0.966,3.967,-6.836,18.799
-0.283,-0.124,0.966,3.845,-4.822,17.883
-0.294,-0.142,0.966,3.601,-2.930,16.052
-0.291,-0.140,0.966,3.540,-0.977,14.709

-0.002,-0.046,1.000,6.104,0.732,6.042
-0.008,-0.047,1.000,4.639,-0.671,6.104
-0.009,-0.041,1.001,2.808,-1.709,5.127
-0.008,-0.055,1.001,0.977,-2.747,3.906
-0.008,-0.069,1.003,-1.221,-3.662,3.113
-0.009,-0.069,1.003,-3.723,-5.005,2.563
0.013,-0.084,1.041,-5.554,-7.324,1.404
0.065,0.068,0.737,-7.935,-13.000,-0.793
0.148,0.049,0.849,-7.507,-17.273,-0.732
-0.090,-0.038,0.878,-3.174,-18.738,0.000
0.259,-0.022,1.034,3.174,8.728,0.610
0.065,-0.039,0.946,3.113,-4.517,-0.732
0.222,-0.035,1.005,3.235,1.770,-2.014
0.161,-0.034,0.966,3.052,-0.977,-2.869
0.208,-0.045,0.986,3.052,0.183,-3.357
0.198,-0.034,0.971,3.052,-0.427,-3.906
0.182,-0.040,0.987,3.235,-1.038,-4.333
0.184,-0.041,0.974,3.113,-1.038,-5.188
0.183,-0.023,0.988,3.052,-0.793,-5.493
0.208,0.011,0.976,2.869,-0.916,-5.005
0.207,0.002,0.983,3.174,-1.526,-3.174
0.186,-0.032,0.972,3.235,-1.770,-1.038
0.187,-0.061,0.978,3.540,-1.282,0.366
0.200,-0.068,0.981,3.845,-1.221,1.221
0.203,-0.068,0.988,3.479,-1.587,2.014
0.208,-0.061,0.978,3.235,-1.587,2.686
0.206,-0.068,0.983,2.808,-0.671,3.235
0.212,-0.073,0.984,2.380,0.061,3.235
0.212,-0.086,0.992,2.014,0.305,3.052
0.168,-0.088,0.971,2.014,-1.648,2.380
0.165,-0.091,0.984,2.014,-1.221,0.793
0.158,-0.067,0.983,2.075,-1.221,-1.831
0.176,-0.009,0.975,1.892,-1.404,-3.601
0.196,0.035,0.976,2.075,-0.916,-3.601
0.226,0.051,0.984,2.563,-0.610,-0.977
0.213,0.031,0.982,2.686,-0.671,4.028
0.184,-0.022,0.975,2.808,-0.122,9.033
0.122,-0.056,0.982,2.686,-0.244,11.108
0.122,-0.077,0.984,3.052,0.183,10.071
0.103,-0.039,0.974,2.625,0.488,7.874
0.107,-0.024,0.970,2.502,1.160,6.897
0.082,-0.022,0.986,2.258,0.244,7.141
0.074,-0.024,0.985,2.441,0.488,7.996
0.048,-0.049,0.984,2.808,0.610,8.545
0.024,-0.046,0.987,2.869,0.244,8.240
0.026,-0.006,0.999,2.869,-0.305,7.141
0.070,0.055,0.983,3.479,-0.671,7.446
0.072,0.088,0.967,3.784,0.732,10.315
0.064,0.054,0.977,4.150,1.709,14.343
0.008,-0.017,0.979,4.578,0.000,16.968
0.003,-0.055,0.981,4.272,0.671,17.029
-0.028,-0.090,0.995,3.784,0.732,15.137
-0.043,-0.101,0.972,3.601,1.038,11.963
-0.057,-0.096,0.988,3.662,0.854,7.751
-0.067,-0.077,0.978,3.540,-0.183,3.784
-0.039,-0.028,0.968,3.723,-0.427,0.061
-0.000,0.023,0.975,4.333,-2.014,-1.343
0.020,0.068,0.993,4.517,-3.479,-0.488
0.013,0.091,0.964,3.967,-4.028,2.258
0.045,0.088,0.980,3.662,-1.953,6.592
0.011,0.042,0.983,3.418,-2.319,11.414
0.002,-0.016,0.985,2.869,-0.916,15.137
-0.047,-0.066,0.984,2.747,0.366,17.334
-0.059,-0.109,0.984,2.808,1.160,16.052
-0.071,-0.108,0.985,3.174,2.441,12.268
-0.139,-0.093,0.974,3.113,2.686,7.080
-0.006,-0.040,1.003,2.808,7.935,1.160
-0.001,0.048,0.946,4.028,4.089,-1.343
0.018,0.106,0.993,4.761,-4.272,0.183
0.034,0.130,0.979,5.188,-1.892,5.188
0.038,0.094,0.980,4.944,-0.854,12.390
0.013,0.029,0.986,4.883,0.000,19.226
-0.042,-0.046,0.982,4.883,-1.099,23.193
-0.057,-0.105,0.982,4.700,-0.488,23.315
-0.047,-0.118,0.992,4.211,-0.549,20.264
0.000,-0.088,0.987,4.333,-3.601,16.357
-0.043,-0.073,0.966,4.272,-7.507,12.939
0.023,-0.057,0.980,3.784,-3.967,10.193
0.047,0.000,0.974,3.967,-2.502,9.338
0.058,-0.002,0.982,4.089,-1.099,10.437
0.076,-0.008,0.984,3.784,1.770,11.780
0.071,0.003,0.977,3.845,-0.916,12.512
0.005,0.002,0.960,3.540,-5.432,12.695
0.065,-0.005,0.991,3.357,0.000,12.146
0.095,0.034,0.953,3.479,0.793,12.573
0.077,0.015,0.996,4.761,-0.427,14.954
0.017,-0.028,0.995,5.066,-1.343,16.296
-0.005,-0.059,0.999,4.272,-0.793,15.625
-0.015,-0.032,0.984,3.967,-1.892,13.489
-0.026,0.036,0.983,4.211,-4.028,12.451
-0.017,0.062,0.977,4.822,-6.165,13.916
-0.074,0.029,0.997,4.944,-7.019,16.968
-0.087,-0.009,0.974,4.456,-6.897,19.897
-0.115,-0.057,0.989,3.601,-5.066,21.729
-0.117,-0.091,0.972,2.930,-3.296,21.851
-0.133,-0.069,0.979,2.380,-1.831,19.348
-0.105,-0.021,0.982,2.563,-0.427,17.639
-0.088,0.033,0.991,2.747,0.000,17.273
-0.077,0.064,0.985,2.869,0.610,19.348
-0.070,0.103,0.983,3.235,0.916,23.437
-0.107,0.086,0.987,3.235,0.977,28.625
-0.153,0.039,0.983,3.357,0.427,33.386
-0.182,0.047,0.974,2.930,-0.305,36.377
-0.176,0.030,0.977,4.028,-0.488,38.574
-0.220,-0.022,0.998,5.981,-1.221,41.138
-0.248,-0.082,0.991,5.798,-2.991,41.748
-0.261,-0.087,0.973,4.395,-3.174,40.283
-0.285,-0.121,0.990,4.944,-3.479,38.330
-0.334,-0.139,1.011,5.737,-5.676,36.072
-0.360,-0.124,0.999,5.005,-8.911,32.349
-0.349,-0.089,0.991,4.028,-10.193,28.564
-0.335,-0.056,0.988,3.662,-11.780,26.855
-0.314,-0.010,0.965,3.296,-13.794,27.405
-0.340,-0.037,0.966,3.540,-13.306,29.846
-0.357,-0.051,0.974,2.441,-10.193,31.799
-0.346,-0.068,0.974,1.099,-6.042,32.104
-0.362,-0.090,0.973,0.366,-5.066,32.288
-0.376,-0.140,0.971,0.427,-4.028,31.433
-0.399,-0.171,0.962,0.549,-2.441,28.870

-0.067,-0.092,1.000,5.310,1.221,4.883
-0.047,-0.079,1.005,2.380,1.587,1.892
-0.039,-0.065,1.007,-0.916,2.747,-0.427
-0.125,-0.098,0.985,-4.089,4.272,-2.197
-0.064,-0.157,1.004,-4.089,4.089,-7.935
-0.009,-0.133,1.028,-3.662,3.784,-14.099
0.396,0.087,0.867,-4.333,2.625,-16.479
0.298,0.018,1.021,-0.244,0.427,-5.554
0.132,0.045,1.017,-5.432,-11.108,0.977
0.304,-0.031,0.939,-5.371,-1.526,3.357
0.360,-0.052,0.966,-0.793,4.028,5.249
0.397,-0.096,0.992,0.305,2.441,5.676
0.470,-0.086,0.980,-0.122,5.798,3.906
0.492,-0.067,0.972,-0.488,6.287,3.052
0.534,-0.042,0.956,-0.488,6.897,3.540
0.534,-0.026,0.936,-0.061,5.188,4.822
0.538,0.022,0.940,1.404,2.441,6.897
0.545,0.041,0.955,2.991,0.671,10.315
0.532,0.006,0.995,4.333,1.465,15.381
0.538,-0.102,1.077,2.808,2.258,18.982
0.489,-0.036,0.942,-2.930,-2.625,18.433
0.492,-0.045,0.993,-2.869,0.854,18.921
0.419,-0.042,0.979,-2.930,0.061,19.287
0.348,-0.085,0.951,-4.456,-2.197,18.372
0.248,-0.110,0.937,-4.456,-2.075,16.296
0.149,-0.037,0.958,-2.747,-2.197,12.939
0.164,0.112,0.937,-1.221,-2.869,10.559
0.140,0.192,0.895,2.136,-3.357,14.343
0.104,0.169,0.896,7.629,-1.953,22.522
0.043,0.062,0.952,14.221,-2.136,30.334
-0.071,-0.032,1.043,17.517,-3.357,34.058
-0.104,-0.109,1.111,12.512,-1.587,33.997
-0.061,-0.048,0.961,3.174,-1.099,30.762
-0.090,-0.078,0.998,1.343,0.061,30.640
-0.120,-0.148,1.023,2.625,3.174,31.555
-0.110,-0.164,0.985,0.732,4.639,28.320
-0.109,-0.094,0.974,-0.610,2.014,24.231
-0.032,0.047,0.938,0.183,0.427,21.179
-0.006,0.083,0.970,4.578,1.770,23.315
-0.001,0.053,0.999,6.714,0.671,27.405
-0.017,-0.029,0.984,6.409,-0.916,30.396
-0.121,-0.087,0.997,3.784,2.747,29.846
0.246,-0.111,1.057,2.991,14.526,26.550
0.016,-0.085,1.014,-0.549,-1.831,24.170
0.049,-0.141,1.006,-6.592,-8.667,17.151
0.119,-0.155,1.042,-7.385,3.418,10.559
0.100,-0.045,0.976,-11.902,0.671,3.662
0.245,0.182,0.920,-12.878,2.075,0.183
0.304,0.344,0.819,-8.362,-0.244,4.333
0.297,0.339,0.836,1.831,-1.770,16.724
0.241,0.224,0.875,11.658,-3.479,28.992
0.178,0.070,0.935,18.860,-5.371,37.109
0.138,-0.036,1.022,22.644,-9.155,39.124
0.036,-0.102,1.045,20.630,-16.296,36.316
-0.009,-0.175,1.081,15.564,-14.526,30.457
-0.013,-0.192,1.067,7.324,-13.184,21.667
0.004,-0.140,0.989,1.160,-16.052,12.146
0.022,-0.105,0.972,0.244,-17.700,6.104
0.056,0.006,0.970,1.831,-15.503,2.991
0.188,0.177,0.927,1.770,-12.573,3.113
0.188,0.167,0.930,5.005,-10.498,11.902
0.090,0.060,0.952,8.484,-7.202,22.766
0.027,-0.096,0.940,8.972,0.366,26.367
-0.082,-0.184,0.953,10.010,6.348,23.437
-0.106,-0.130,0.972,9.827,12.817,14.648
-0.026,-0.084,1.050,10.254,17.395,6.042
0.010,-0.064,1.004,8.728,11.169,0.305
-0.039,-0.042,0.961,8.118,0.427,-2.197
-0.039,-0.043,0.955,9.521,-1.648,-3.601
-0.074,-0.028,0.996,11.047,0.854,-5.127
-0.075,0.048,1.004,10.132,3.723,-6.287
-0.029,0.117,0.968,8.484,6.409,-4.944
-0.086,0.125,0.984,7.935,8.423,-0.854
-0.062,0.183,1.019,6.348,12.268,4.456
-0.041,0.185,1.014,3.418,13.489,9.949
-0.101,0.135,0.976,2.197,11.108,16.235
-0.131,0.068,0.981,3.662,11.230,21.606
-0.198,-0.019,0.983,5.798,10.315,23.926
-0.291,-0.102,1.007,8.911,10.498,22.522
-0.270,-0.054,1.013,10.010,12.329,18.005
-0.208,0.033,0.995,8.667,12.085,15.259
-0.217,0.020,1.003,9.705,9.766,18.494
-0.247,-0.073,0.992,10.742,7.141,21.423
-0.218,-0.082,0.990,10.132,5.981,22.156
-0.295,-0.042,1.020,10.071,2.380,23.193
-0.260,-0.020,0.985,6.531,1.465,21.484
-0.255,-0.027,0.952,4.883,2.869,22.461
-0.230,-0.037,0.930,1.465,3.784,23.071
-0.209,-0.090,0.927,-4.028,1.770,22.644
-0.232,-0.139,0.951,-7.751,-4.272,20.508
-0.270,-0.152,1.005,-6.287,-9.644,17.700
-0.276,-0.180,1.037,2.441,-11.414,17.395
-0.190,-0.174,0.989,9.521,-6.348,15.808
-0.140,-0.108,1.010,7.935,-3.235,11.475
-0.085,-0.011,1.000,4.822,0.183,9.949
-0.067,0.014,0.991,4.517,2.869,12.512
-0.099,-0.001,0.993,4.517,3.540,15.686
-0.142,-0.024,0.993,3.967,3.418,17.151
-0.201,-0.043,0.976,3.662,2.075,17.151
-0.236,-0.045,0.962,4.456,0.427,16.174
-0.251,-0.062,0.959,5.920,-2.136,15.381
-0.296,-0.116,0.979,7.324,-5.249,14.404
-0.329,-0.150,1.006,7.996,-7.507,11.841
-0.312,-0.123,1.007,8.118,-7.996,8.057
-0.270,-0.059,0.977,7.446,-6.836,4.089
-0.215,-0.043,0.984,6.226,-4.089,2.563
-0.195,-0.033,0.993,4.211,-3.479,2.319
-0.164,-0.008,1.001,2.441,-3.601,2.502
-0.136,-0.021,0.991,2.563,-2.563,3.723
-0.148,-0.049,0.998,3.601,-1.892,5.920
-0.162,-0.068,0.997,3.601,-0.916,6.592
-0.162,-0.040,0.986,2.930,0.061,5.859
-0.165,-0.031,0.973,2.563,-0.549,5.310
-0.216,-0.082,0.974,3.174,-2.441,5.920
-0.358,-0.193,1.060,3.113,-3.113,5.493
-0.236,-0.075,0.967,0.305,-0.244,0.244
-0.191,-0.080,0.944,4.456,-2.197,-0.183
-0.164,-0.090,0.956,6.775,-4.028,0.732
-0.131,-0.073,0.969,5.859,-6.104,0.854

0.020,-0.045,0.989,3.967,2.319,-1.770
0.040,-0.052,0.996,2.808,1.831,-2.747
0.072,-0.074,1.002,1.099,1.038,-3.845
0.075,-0.079,1.001,-1.221,0.977,-5.859
0.129,-0.085,0.984,-2.686,1.892,-7.385
0.120,-0.107,1.020,-4.333,0.488,-8.362
0.397,-0.114,1.123,-6.287,-1.038,-10.681
0.535,0.094,0.880,-6.348,-6.104,-4.028
0.318,-0.020,0.958,0.244,-10.376,9.644
0.501,-0.106,0.961,1.648,3.601,10.742
0.429,-0.057,0.971,2.441,2.380,9.216
0.511,-0.008,0.970,2.441,3.174,7.141
0.515,0.071,0.964,2.502,3.418,7.141
0.533,0.097,0.967,2.380,3.784,10.254
0.534,0.082,0.970,2.014,4.272,15.503
0.515,0.039,0.973,1.648,4.028,21.301
0.490,-0.026,0.982,0.977,4.028,26.367
0.438,-0.065,0.974,-0.183,4.456,29.602
0.403,-0.062,0.972,-0.610,4.089,31.067
0.367,-0.052,0.942,-0.671,3.845,31.982
0.333,-0.061,0.935,0.916,3.052,33.081
0.285,-0.079,0.980,3.357,1.221,33.508
0.264,-0.087,0.972,4.517,-0.183,32.776
0.228,-0.069,0.964,4.822,-0.793,31.555
0.191,-0.096,0.975,5.981,-2.563,30.945
0.143,-0.057,0.973,4.639,-2.258,29.053
0.127,-0.074,0.988,4.150,0.488,27.527
0.064,-0.086,0.994,3.357,-0.488,26.428
0.056,-0.010,0.979,2.502,-0.305,24.963
0.107,0.075,0.965,1.953,-0.549,25.635
0.090,0.060,0.966,2.747,-1.648,31.067
0.044,0.010,0.972,3.174,-1.892,36.987
0.006,-0.038,0.971,3.113,-0.549,40.405
-0.026,-0.089,1.004,3.418,1.282,41.321
-0.033,-0.113,1.001,2.014,2.625,39.490
-0.037,-0.094,0.984,0.305,1.465,36.255
-0.046,-0.085,0.981,0.244,0.732,33.142
-0.003,-0.003,0.991,-0.122,0.916,30.212
0.051,0.061,0.973,-1.465,-0.183,29.663
0.031,0.038,0.981,-1.038,-0.244,33.691
-0.002,-0.030,1.002,-0.977,1.282,37.415
-0.042,-0.081,1.013,-2.747,2.136,37.659
-0.125,-0.072,0.984,-5.310,3.418,34.790
0.034,-0.049,0.970,-5.676,8.484,30.518
-0.029,-0.009,0.930,-4.089,4.150,30.701
-0.114,-0.091,0.983,-1.587,2.075,31.982
-0.099,-0.199,1.033,0.183,6.714,27.893
-0.136,-0.193,1.002,-3.296,3.235,18.799
-0.101,-0.081,0.974,-5.981,1.343,10.437
-0.051,0.049,0.926,-5.981,-0.305,6.287
0.014,0.108,0.891,-2.441,-1.038,8.301
0.012,0.075,0.916,3.235,-0.549,14.038
0.019,0.142,0.881,9.521,-1.221,20.020
-0.067,0.108,0.961,14.648,-3.967,27.283
0.013,0.103,0.988,17.883,-2.197,30.823
-0.040,0.070,0.980,17.212,-6.226,32.532
-0.054,0.009,1.004,17.029,-6.226,33.020
-0.035,-0.020,0.984,15.930,-4.700,30.823
-0.042,-0.029,0.985,15.320,-4.578,28.076
-0.064,-0.054,1.003,15.442,-4.456,25.452
-0.088,-0.065,1.017,14.587,-3.357,21.912
-0.099,-0.052,1.027,11.902,-1.770,17.639
-0.104,-0.021,1.028,7.935,0.183,13.245
-0.089,0.021,0.999,4.578,1.160,9.705
-0.050,0.049,0.976,2.563,1.038,7.996
-0.043,0.041,0.963,2.380,-1.526,7.568
-0.057,0.003,0.982,3.845,-3.113,7.446
-0.066,-0.008,0.998,4.211,-3.906,6.348
-0.070,0.003,1.001,2.991,-4.578,4.639
-0.041,0.014,0.986,1.892,-3.540,3.967
-0.048,-0.004,0.969,1.831,-2.991,3.357
-0.065,-0.034,0.974,2.380,-2.991,2.197
-0.054,-0.050,0.980,3.418,-2.075,-0.305
-0.027,-0.036,0.993,3.906,-1.587,-2.319
-0.043,-0.041,0.991,3.662,-1.648,-3.357
-0.012,0.035,0.998,2.686,-1.465,-4.272
0.029,0.098,0.986,1.953,-1.709,-3.479
0.017,0.127,0.976,2.686,-3.723,0.977
-0.002,0.086,0.981,3.418,-6.409,7.202
-0.039,0.009,0.984,4.944,-9.583,11.719
-0.099,-0.045,0.998,7.385,-13.123,14.099
-0.110,-0.016,1.021,8.179,-14.465,13.855
-0.077,0.030,1.017,6.653,-13.916,13.672
-0.083,0.026,0.999,5.554,-14.343,15.686
-0.115,0.016,0.962,5.371,-15.198,18.799
-0.146,-0.017,0.942,7.690,-11.292,21.851
-0.176,-0.031,0.927,9.949,-3.235,24.170
-0.190,-0.019,0.940,10.681,3.723,25.574
-0.188,-0.056,0.996,7.996,8.057,24.902
-0.194,-0.026,0.985,3.540,3.113,23.315
-0.258,-0.081,1.031,4.333,-6.042,25.024
-0.315,-0.147,1.056,7.385,-15.869,26.001
-0.318,-0.168,1.020,8.606,-25.024,23.621
-0.336,-0.185,0.950,10.193,-32.654,20.569
-0.361,-0.144,0.908,8.972,-32.776,16.968
-0.353,-0.115,0.911,7.996,-21.667,14.648
-0.352,-0.110,0.937,8.240,-8.301,14.709
-0.358,-0.112,0.964,9.949,0.977,15.625
-0.375,-0.126,0.999,11.902,6.287,16.174
-0.473,-0.136,1.143,10.376,8.545,15.930
-0.220,-0.027,1.026,6.287,11.475,13.000
-0.211,-0.002,0.921,2.197,-1.892,12.329
-0.269,-0.141,0.805,2.808,-15.137,16.174
-0.361,-0.165,0.891,-3.052,-14.221,12.573
-0.310,-0.115,1.007,-5.371,-1.343,8.728
-0.245,-0.069,1.043,-6.531,2.686,6.348
-0.239,-0.118,1.013,-5.066,-1.221,7.446
-0.244,-0.143,0.996,-3.845,-3.418,7.507
-0.210,-0.115,0.992,-3.296,-3.479,5.249
-0.200,-0.102,1.003,-0.549,-5.188,3.906
-0.199,-0.082,1.005,1.953,-8.850,3.296
-0.175,-0.049,0.996,1.892,-13.062,2.136
-0.172,-0.034,0.977,1.038,-17.517,1.953
-0.180,-0.046,0.965,0.549,-20.264,2.380
-0.210,-0.069,0.970,0.977,-18.860,2.441
-0.177,-0.082,0.962,1.831,-13.672,1.587
-0.165,-0.055,0.950,2.014,-9.460,0.122
-0.133,-0.012,0.948,2.686,-5.127,-0.488
-0.100,0.004,0.963,3.723,-0.610,0.305

-0.001,-0.054,1.004,0.854,0.061,0.366
-0.002,-0.049,1.006,-1.526,0.244,-0.427
-0.005,-0.045,1.006,-3.662,0.549,-1.282
0.055,0.084,0.689,-4.944,-0.244,-2.563
-0.098,-0.024,0.929,-4.578,-3.662,-2.991
0.199,-0.058,0.887,-8.057,-4.700,-6.226
0.056,-0.030,0.969,1.099,1.770,-2.319
0.164,-0.059,0.987,2.014,2.075,-2.014
0.179,-0.058,0.978,2.136,4.883,-2.808
0.195,-0.056,0.974,2.625,4.700,-2.686
0.288,-0.032,0.956,2.869,5.371,-2.930
0.280,-0.007,0.986,2.930,2.930,-2.563
0.331,0.015,0.962,2.747,4.578,-1.038
0.305,0.026,0.986,3.296,3.906,1.160
0.348,-0.006,0.906,3.296,0.061,2.625
0.293,-0.014,0.953,3.357,1.221,3.296
0.310,-0.078,0.982,3.479,0.549,4.517
0.276,-0.106,0.985,3.296,1.221,3.906
0.303,-0.076,0.973,2.625,2.197,0.366
0.333,-0.029,0.973,2.258,3.235,-2.747
0.313,-0.034,0.980,2.319,2.930,-3.479
0.319,-0.036,0.978,1.709,4.761,-3.784
0.313,-0.006,0.954,0.793,4.883,-3.906
0.330,0.048,0.942,1.465,2.930,-2.625
0.314,0.043,0.968,3.174,1.282,1.404
0.262,-0.014,0.989,3.479,0.549,6.897
0.218,-0.036,0.979,2.075,1.587,10.681
0.193,-0.062,1.000,1.221,3.967,12.878
0.179,-0.090,1.003,-0.366,3.723,13.062
0.151,-0.086,0.960,-1.892,2.258,12.085
0.158,-0.093,0.953,-1.709,1.465,10.620
0.124,-0.121,0.950,0.244,-0.244,9.583
0.116,-0.148,0.958,1.587,-0.977,7.080
0.108,-0.142,0.963,2.258,-2.380,3.540
0.103,-0.131,0.979,3.784,-3.052,1.343
0.135,-0.064,0.991,4.089,-2.747,-1.526
0.135,0.010,0.979,3.540,-2.869,-2.380
0.142,0.056,0.968,3.723,-1.343,0.061
0.165,0.105,0.966,4.211,-0.671,4.517
0.149,0.083,0.995,4.456,-0.549,10.376
0.122,0.035,0.993,4.639,-0.122,15.869
0.114,0.043,0.983,3.052,3.052,18.372
0.131,0.024,0.981,2.136,6.592,19.653
0.098,0.002,0.967,1.709,5.066,20.386
0.097,-0.054,0.955,1.892,4.639,19.470
0.082,-0.091,0.968,2.258,3.357,16.602
0.024,-0.114,1.001,2.930,4.578,12.024
0.082,-0.172,0.974,3.540,7.385,6.592
0.081,0.009,0.959,0.305,-5.493,-0.549
0.160,0.193,0.931,1.709,-7.996,-0.122
0.227,0.274,0.950,5.188,-2.625,8.118
0.231,0.232,0.968,8.728,1.953,21.667
0.165,0.117,0.987,8.606,1.343,33.386
0.111,-0.015,1.001,6.714,1.343,39.368
0.085,-0.076,0.998,4.517,2.075,39.368
0.055,-0.112,1.000,3.174,2.258,36.438
0.049,-0.133,1.010,1.892,2.930,31.311
0.031,-0.149,0.999,-0.427,2.686,25.085
0.024,-0.161,0.975,-2.380,2.747,18.921
0.006,-0.174,0.957,-2.502,2.258,13.184
0.025,-0.072,0.915,-1.343,0.244,7.568
0.100,0.089,0.888,2.014,-2.319,6.226
0.129,0.177,0.920,8.118,-3.784,12.085
0.101,0.177,0.974,12.207,-6.409,21.606
0.060,0.093,1.008,13.428,-8.423,31.372
-0.013,-0.023,1.001,12.817,-9.216,37.537
-0.073,-0.130,1.009,10.376,-8.301,37.537
-0.093,-0.190,1.001,7.324,-6.226,32.288
-0.104,-0.183,1.001,5.249,-4.456,25.696
-0.088,-0.155,0.986,3.845,-3.113,18.860
-0.056,-0.104,0.960,2.991,-4.517,13.855
-0.054,-0.040,0.971,4.272,-6.104,11.658
-0.016,0.045,0.993,5.981,-5.981,12.390
-0.022,0.047,0.990,7.507,-5.432,16.724
-0.032,0.055,0.995,6.592,-5.310,21.545
-0.032,0.062,0.993,4.456,-4.761,25.085
-0.044,-0.002,0.998,4.639,-5.310,28.687
-0.102,-0.074,0.994,4.822,-8.057,30.212
-0.140,-0.137,0.985,3.540,-9.949,27.954
-0.172,-0.152,1.000,3.357,-8.728,23.926
-0.161,-0.125,0.995,3.174,-7.507,18.982
-0.178,-0.094,0.988,2.686,-6.897,14.282
-0.149,-0.028,0.983,2.563,-5.127,11.597
-0.115,0.052,0.967,1.892,-3.601,10.681
-0.104,0.083,0.982,2.625,-4.272,13.367
-0.129,0.021,0.998,4.028,-4.883,18.250
-0.179,-0.041,1.016,3.540,-4.700,20.691
-0.194,-0.078,1.012,1.343,-4.089,19.714
-0.194,-0.060,1.002,-0.427,-6.348,17.212
-0.183,-0.055,0.981,-1.221,-9.949,15.137
-0.201,-0.053,0.954,-1.221,-11.841,12.695
-0.203,-0.043,0.957,0.610,-10.437,10.437
-0.195,-0.012,0.978,2.625,-8.179,8.728
-0.185,-0.019,0.977,3.540,-6.470,7.812
-0.204,-0.011,0.962,5.066,-6.104,7.751
-0.188,0.020,0.952,6.287,-5.859,7.141
-0.173,0.028,0.966,7.019,-4.639,7.324
-0.171,0.022,0.980,8.606,-2.747,7.874
-0.179,0.019,1.000,9.399,-1.160,8.057
-0.217,0.024,1.032,8.850,-0.549,8.850
-0.234,0.038,1.025,6.348,0.366,9.521
-0.210,0.052,0.966,3.967,-1.282,10.498
-0.207,0.063,0.917,3.235,-3.723,11.597
-0.249,-0.007,0.950,5.371,-2.441,14.038
-0.241,-0.027,0.988,5.188,2.075,14.404
-0.214,-0.041,0.975,4.395,5.066,12.634
-0.243,-0.041,0.968,6.226,5.127,11.597
-0.218,-0.048,0.976,7.263,6.226,10.620
-0.212,-0.040,0.993,7.446,7.385,9.705
-0.185,-0.024,1.010,7.324,7.812,9.277
-0.148,0.008,1.020,6.165,6.958,8.606
-0.141,0.010,0.998,4.883,5.005,8.911
-0.138,0.012,0.976,4.761,2.930,8.911
-0.161,-0.019,0.967,5.005,2.991,8.667
-0.225,-0.061,1.003,6.226,3.174,8.545
-0.294,-0.068,1.093,4.761,3.052,7.568
-0.072,0.023,1.038,8.423,6.714,3.052
0.033,-0.041,0.822,13.550,-4.639,4.028
-0.032,-0.199,0.691,7.446,-20.691,2.747

0.031,-0.036,1.013,-0.549,3.845,-5.737
0.073,-0.032,1.003,-3.540,5.615,-8.789
0.119,-0.025,0.997,-5.737,5.676,-9.888
0.189,0.081,0.833,-5.981,4.944,-8.667
0.416,-0.188,1.137,-5.310,4.639,-5.005
0.364,0.121,0.893,-16.541,-8.728,-4.028
0.374,0.036,0.898,-10.010,-1.160,2.319
0.491,0.016,0.961,-2.319,13.794,4.028
0.479,0.075,0.959,-1.343,8.606,2.930
0.574,0.143,0.964,-1.282,9.583,2.747
0.571,0.145,0.967,-1.465,9.399,5.737
0.569,0.117,0.984,-2.380,7.263,9.460
0.525,0.086,0.990,-4.150,6.165,12.146
0.500,0.092,0.957,-6.409,6.714,14.404
0.500,0.103,0.922,-6.165,8.545,17.029
0.463,0.090,0.875,-2.625,7.568,20.996
0.408,0.030,0.886,3.113,6.897,24.841
0.344,-0.035,0.865,7.019,5.127,25.085
0.280,-0.121,0.902,11.230,1.831,22.461
0.222,-0.170,0.925,15.320,-0.977,17.456
0.182,-0.213,1.034,17.578,-2.502,11.292
0.160,-0.176,0.983,14.099,-8.728,3.662
0.177,-0.141,0.984,9.216,-11.292,-2.258
0.101,-0.166,1.030,6.165,-10.254,-5.005
0.088,-0.165,1.010,4.700,-6.165,-7.446
0.156,-0.025,0.976,2.441,-4.272,-9.949
0.162,0.066,0.994,3.296,-2.319,-6.531
0.147,0.145,0.965,1.648,-1.343,-0.366
0.130,0.083,0.978,3.052,0.427,8.972
0.107,0.018,0.965,5.066,1.465,15.198
0.040,-0.058,0.968,6.470,0.000,17.029
0.048,-0.093,0.948,8.179,0.000,15.869
0.055,-0.115,1.032,7.751,3.784,12.451
0.019,-0.161,1.000,6.531,1.587,9.521
-0.001,-0.202,1.021,4.333,2.808,4.944
-0.009,-0.153,0.990,1.465,3.174,-1.282
0.042,-0.034,0.962,-0.427,1.404,-5.554
0.094,0.053,0.929,0.916,-0.366,-6.348
0.126,0.088,0.957,4.822,-0.061,-3.479
0.135,0.129,0.971,7.324,-0.610,2.625
0.118,0.085,1.011,8.240,-0.061,10.437
0.079,0.031,0.987,6.226,0.671,16.602
0.047,-0.042,0.974,4.211,2.441,19.897
0.029,-0.082,0.970,3.723,2.869,19.348
-0.009,-0.124,0.973,4.272,1.160,16.968
-0.114,-0.188,0.973,4.822,1.404,12.268
0.045,-0.141,0.968,5.127,4.089,4.700
-0.006,0.004,0.952,4.761,-4.578,1.404
-0.017,-0.025,1.006,6.409,-4.700,3.357
-0.005,-0.006,0.996,5.737,-2.014,4.150
0.059,0.052,0.981,4.578,-1.953,5.737
0.025,0.080,1.002,4.272,-2.441,9.644
0.008,0.057,0.990,3.662,-1.343,13.977
0.003,-0.006,0.974,2.808,0.305,17.212
-0.037,-0.042,0.980,2.014,-0.916,17.944
-0.021,-0.099,0.971,3.357,0.183,16.479
-0.065,-0.138,0.980,4.150,-1.160,13.916
-0.077,-0.145,0.995,3.967,-0.427,10.071
-0.072,-0.100,0.979,2.563,-0.854,5.005
0.000,0.021,0.958,2.380,-0.732,1.648
0.017,0.134,0.941,3.601,-2.869,2.563
0.022,0.135,0.971,6.348,-3.418,7.935
-0.009,0.023,0.984,7.324,-3.174,13.123
-0.071,-0.041,1.001,7.080,-2.930,14.587
-0.069,-0.001,0.990,5.371,-2.502,12.329
-0.049,0.005,0.982,4.883,-1.404,11.536
-0.095,-0.036,1.000,5.005,-1.587,12.268
-0.120,-0.099,0.993,4.944,-1.282,11.475
-0.144,-0.126,1.000,4.822,-1.404,8.789
-0.123,-0.126,0.987,3.845,-1.343,4.150
-0.130,-0.095,1.003,3.052,-0.977,-0.366
-0.095,-0.019,0.985,3.235,-0.122,-3.174
-0.051,0.051,0.995,3.357,1.160,-3.601
-0.043,0.105,0.985,3.052,0.916,-2.380
-0.033,0.115,0.977,2.563,1.099,1.709
-0.040,0.054,0.966,2.869,0.183,7.080
-0.093,-0.032,0.994,3.662,-1.404,11.047
-0.126,-0.084,1.012,2.747,-2.502,12.451
-0.131,-0.109,0.981,0.671,-2.319,10.681
-0.127,-0.101,0.952,1.465,-2.014,8.057
-0.118,-0.071,0.964,4.456,-3.540,6.531
-0.129,-0.057,1.001,6.531,-5.127,6.531
-0.112,-0.038,0.990,6.287,-4.578,7.141
-0.116,-0.043,1.000,4.883,-3.662,8.850
-0.134,-0.020,1.011,3.601,-3.052,10.681
-0.122,-0.022,1.006,0.732,-3.113,11.902
-0.118,-0.020,0.994,-0.183,-3.906,12.817
-0.113,-0.025,0.993,0.549,-6.714,13.611
-0.146,-0.041,0.983,1.770,-10.193,13.977
-0.147,-0.031,0.982,2.686,-10.864,13.367
-0.137,-0.031,0.980,3.174,-9.766,13.550
-0.140,-0.033,0.961,4.089,-10.193,14.221
-0.160,-0.028,0.952,5.676,-8.545,14.526
-0.155,-0.015,0.981,7.019,-3.967,15.869
-0.129,0.020,0.994,6.714,-1.099,17.639
-0.121,0.026,1.000,6.226,-2.686,20.325
-0.177,-0.046,0.985,5.859,-3.845,22.888
-0.209,-0.062,0.983,5.493,-3.723,23.071
-0.203,-0.049,0.984,4.578,-3.174,22.217
-0.221,-0.070,0.973,4.578,-4.700,21.973
-0.235,-0.065,0.969,5.310,-8.850,21.912
-0.231,-0.109,0.978,6.714,-12.146,21.301
-0.266,-0.132,1.001,8.057,-13.550,19.897
-0.259,-0.108,1.009,7.385,-13.794,17.029
-0.231,-0.060,1.045,6.409,-13.672,15.076
-0.215,-0.028,1.035,4.028,-15.930,13.794
-0.372,-0.155,1.091,1.343,-20.508,13.489
-0.277,0.023,1.008,-1.709,-21.423,11.475
-0.157,-0.000,0.906,1.892,-20.264,9.338
-0.236,-0.104,0.828,3.906,-28.687,11.414
-0.282,-0.130,0.854,2.502,-26.550,9.460
-0.250,-0.046,0.967,-1.648,-12.268,5.432
-0.213,-0.025,1.104,-0.916,-2.502,5.066
-0.195,-0.110,1.052,3.357,-5.432,6.653
-0.222,-0.036,0.962,-0.610,-17.273,3.052
-0.187,0.030,0.936,-0.854,-19.775,1.221
-0.193,0.017,0.959,0.977,-15.991,3.113
-0.229,-0.022,0.983,1.526,-13.123,5.005
-0.202,-0.010,0.967,1.038,-10.376,5.127

-0.014,-0.043,1.011,0.488,-0.793,1.526
-0.005,0.018,0.996,-2.075,-1.465,-0.305
0.003,0.030,1.001,-4.456,-5.188,-2.014
0.024,-0.468,1.256,-5.554,-7.141,-1.831
0.069,0.055,0.773,-10.559,-18.433,-8.362
0.089,-0.026,0.973,-1.709,-8.606,-7.324
0.271,-0.083,1.007,2.197,13.245,-5.432
0.178,-0.074,0.978,0.549,5.493,-6.775
0.309,-0.026,0.989,-0.427,9.705,-7.812
0.362,0.039,0.957,-1.465,8.362,-8.850
0.409,0.085,0.953,-1.282,3.723,-7.446
0.428,0.090,0.979,1.038,4.761,-5.188
0.431,0.116,0.955,1.526,3.845,-4.150
0.434,0.102,0.981,2.747,3.357,-1.038
0.431,0.089,1.002,2.869,3.723,3.296
0.429,0.092,0.994,0.671,5.066,6.409
0.444,0.090,0.964,-1.465,5.188,8.850
0.397,0.051,0.949,-1.892,3.723,11.353
0.370,-0.069,0.966,-0.854,4.517,12.512
0.285,-0.174,0.982,-0.244,3.967,10.620
0.212,-0.242,1.005,-1.587,2.747,6.409
0.176,-0.285,1.017,-3.967,3.967,0.427
0.174,-0.279,0.987,-7.446,3.418,-6.653
0.199,-0.128,0.890,-8.789,0.366,-12.512
0.315,0.100,0.851,-3.357,-0.793,-12.268
0.291,0.144,0.871,6.165,-1.282,-3.418
0.253,0.053,1.030,14.771,0.916,8.911
0.181,-0.007,1.077,12.329,-0.488,15.320
0.172,-0.011,0.980,3.174,-1.953,15.686
0.168,-0.060,0.977,1.709,0.427,17.700
0.127,-0.129,1.000,3.662,0.854,18.921
0.074,-0.176,1.018,3.662,2.441,16.907
0.037,-0.202,1.002,1.892,1.953,12.573
0.021,-0.121,0.948,-1.831,-0.122,6.287
0.124,-0.004,0.903,-0.793,2.747,3.906
0.102,0.072,0.916,4.944,-0.854,7.629
0.078,0.031,1.002,10.254,-1.587,14.526
0.072,0.009,1.004,9.949,-1.892,19.104
0.088,-0.027,1.033,8.057,0.061,23.071
0.056,-0.035,0.998,5.737,1.160,25.757
0.059,-0.066,1.000,3.540,1.892,26.917
0.021,-0.077,0.999,2.258,2.625,26.367
0.002,-0.120,1.013,0.854,5.005,22.888
0.122,-0.110,0.989,0.427,6.104,18.982
-0.068,-0.136,0.991,-2.319,-4.700,15.198
0.040,-0.117,0.947,-3.418,-1.221,10.010
0.071,-0.013,0.880,-2.258,-2.686,6.348
0.065,0.019,0.907,3.723,-3.845,6.958
0.064,0.058,0.987,10.437,-2.625,9.399
0.082,0.116,1.005,11.414,-2.014,11.597
0.106,0.146,1.026,9.399,0.671,15.015
0.112,0.119,1.033,5.188,1.831,19.592
0.057,0.027,1.026,1.099,2.747,23.804
0.006,-0.061,1.015,-1.404,4.028,24.292
-0.028,-0.112,1.007,-3.784,4.700,20.996
-0.038,-0.118,1.001,-4.761,4.944,15.808
-0.073,-0.094,1.017,-5.981,3.845,10.437
-0.067,-0.083,1.040,-7.751,5.249,5.615
-0.052,-0.044,1.004,-10.925,5.554,1.343
-0.007,0.010,0.937,-11.902,5.066,-0.244
-0.010,0.009,0.899,-7.874,4.761,0.732
0.042,0.029,0.828,-3.296,3.601,1.648
0.036,0.060,0.799,0.305,-0.610,2.625
0.009,0.072,0.861,7.019,-4.944,5.676
0.007,0.092,0.892,15.564,-10.254,9.460
-0.007,0.075,0.940,21.118,-12.756,13.123
-0.044,-0.009,1.037,24.231,-11.353,16.968
-0.127,-0.075,1.091,22.827,-10.559,17.456
-0.143,-0.068,1.106,19.104,-6.836,14.893
-0.111,-0.084,1.055,13.855,-2.625,12.512
-0.140,-0.069,1.022,7.812,-1.404,9.521
-0.130,-0.028,1.003,3.906,-0.732,6.897
-0.112,0.005,0.988,2.380,0.244,5.798
-0.105,0.020,0.979,2.014,0.427,6.470
-0.107,0.018,1.000,1.831,1.038,7.935
-0.115,-0.013,1.001,1.221,1.831,8.728
-0.115,-0.020,1.007,-0.427,4.089,7.935
-0.122,-0.043,0.999,0.366,5.859,7.812
-0.122,-0.045,0.986,0.183,4.944,6.836
-0.140,-0.075,0.950,0.732,2.930,5.066
-0.137,-0.115,0.904,4.944,2.258,4.089
-0.125,-0.125,0.898,10.315,0.610,1.953
-0.095,-0.027,0.919,13.367,-1.648,-0.488
-0.054,0.098,0.953,15.564,-4.578,-0.854
-0.009,0.111,1.031,17.639,-5.066,2.991
-0.058,0.088,1.097,14.160,-4.578,7.690
-0.047,0.032,1.074,8.301,-1.709,11.292
-0.047,0.006,1.002,3.906,3.357,12.939
-0.082,0.011,0.989,1.038,4.089,13.062
-0.111,-0.000,0.983,0.793,4.700,13.733
-0.132,-0.009,0.958,1.953,3.967,14.648
-0.142,-0.013,0.937,4.639,3.113,15.320
-0.149,-0.032,0.914,9.521,1.648,15.747
-0.183,-0.060,0.917,15.930,-1.160,15.320
-0.244,-0.132,1.051,22.278,-2.991,15.076
-0.329,-0.089,1.147,19.043,-4.333,11.902
-0.213,0.057,1.050,10.010,-1.831,7.263
-0.151,0.082,0.986,10.620,-3.418,11.963
-0.206,0.022,0.889,8.362,-8.118,18.311
-0.233,-0.040,0.878,2.014,-5.371,20.813
-0.199,-0.016,0.991,-2.258,1.099,20.630
-0.167,0.010,1.046,-2.625,2.502,20.996
-0.180,-0.026,1.034,2.014,-0.916,23.743
-0.198,-0.053,0.989,4.517,-3.113,25.391
-0.206,-0.040,0.961,3.601,-4.639,24.475
-0.238,-0.076,0.985,5.249,-6.470,23.865
-0.476,-0.156,1.180,8.423,-8.057,23.865
-0.233,-0.081,1.071,11.108,-0.305,21.851
-0.170,-0.046,0.974,11.719,-4.456,17.883
-0.245,-0.082,0.831,7.690,-26.672,16.357
-0.319,-0.100,0.857,-0.183,-31.921,13.489
-0.313,-0.050,0.973,-5.981,-19.653,11.169
-0.229,-0.048,1.043,-5.981,-7.996,10.254
-0.192,-0.041,1.018,-3.784,-10.620,10.254
-0.194,-0.067,0.956,-2.686,-20.142,9.277
-0.241,-0.102,0.943,-1.709,-22.034,7.568
-0.257,-0.113,1.002,1.465,-14.893,5.432
-0.222,-0.095,1.030,6.287,-6.104,3.052
-0.180,-0.004,1.007,4.761,-4.883,-0.305

0.050,-0.053,1.015,1.221,2.869,-2.258
0.150,-0.050,0.997,-1.892,5.737,-5.981
0.183,-0.065,1.005,-4.578,6.348,-11.230
0.258,-0.014,0.963,-6.836,6.592,-15.564
0.539,-0.026,0.880,-6.592,7.568,-18.799
0.399,-0.040,0.899,-9.033,0.122,-15.015
0.506,-0.007,0.850,-15.259,-7.385,-16.968
0.551,0.042,0.969,-0.549,10.742,-7.202
0.534,0.092,0.936,-1.465,1.465,-3.113
0.553,0.060,0.944,0.977,5.737,1.648
0.483,-0.000,0.949,1.953,2.930,4.089
0.443,-0.013,1.001,2.930,3.235,3.601
0.476,0.061,0.920,1.648,-0.916,2.075
0.456,-0.038,0.962,2.075,-0.061,4.639
0.354,-0.140,0.976,2.930,-0.122,6.531
0.329,-0.139,0.947,1.587,-0.916,3.296
0.308,-0.054,0.948,2.502,-2.319,0.061
0.356,0.065,0.945,3.601,-2.808,-0.305
0.344,0.094,0.995,4.578,-2.930,3.418
0.289,0.071,0.971,3.723,-3.235,8.606
0.231,0.020,0.978,2.991,-2.136,13.672
0.163,-0.035,0.988,2.136,-1.709,16.174
0.146,-0.078,1.021,1.648,0.366,16.235
0.079,-0.080,0.947,0.244,-0.671,13.184
0.046,-0.138,0.955,1.648,-0.244,9.888
-0.013,-0.152,0.997,2.197,-2.197,5.005
-0.005,-0.104,0.973,0.977,-3.235,0.549
0.048,0.034,0.956,0.916,-3.235,-0.854
0.075,0.137,0.980,1.709,-3.967,2.625
0.030,0.082,0.984,2.808,-3.357,10.620
0.002,-0.010,0.999,3.418,-0.671,17.273
-0.015,-0.051,0.994,2.441,0.000,18.860
-0.024,-0.062,0.979,2.930,0.244,17.639
0.006,-0.028,0.995,1.648,2.441,14.832
0.013,-0.049,1.013,1.526,6.470,14.099
-0.024,-0.102,1.009,-0.732,4.822,11.841
-0.030,-0.130,1.010,-3.235,4.883,8.301
-0.036,-0.060,0.980,-4.761,3.601,3.967
0.083,0.066,0.910,-4.944,1.343,1.343
0.132,0.110,0.906,-0.977,-0.122,4.700
0.119,0.071,0.961,4.150,-0.610,11.841
-0.048,0.002,0.972,6.958,0.366,18.433
0.290,-0.081,1.032,6.836,7.812,20.203
-0.053,-0.068,0.994,3.601,-4.028,20.386
0.095,-0.109,0.964,-0.183,-7.751,16.479
0.024,-0.096,0.984,1.709,-1.831,15.381
-0.008,-0.120,0.984,0.671,-2.502,12.390
0.049,-0.100,0.991,0.916,1.404,8.545
0.062,0.026,0.917,-0.977,-3.906,5.920
0.127,0.078,0.907,2.197,-3.296,8.362
0.110,0.071,0.973,7.690,-2.258,14.404
0.079,0.059,1.001,9.094,-2.869,19.531
0.084,0.061,1.006,7.812,-1.038,23.315
0.080,0.055,0.989,5.188,-0.549,26.550
0.055,0.015,0.982,4.578,-0.305,30.090
0.030,-0.036,0.965,5.066,-0.854,32.654
-0.025,-0.091,0.955,5.981,-2.808,33.508
-0.052,-0.128,0.980,7.874,-3.479,32.227
-0.087,-0.131,0.989,8.057,-4.456,28.687
-0.064,-0.078,0.991,6.836,-4.639,24.475
-0.031,-0.008,0.961,5.798,-5.127,22.400
-0.020,0.018,0.995,6.592,-4.333,23.682
0.009,0.034,0.984,6.042,-4.333,27.405
-0.017,0.021,0.981,4.700,-5.798,31.860
-0.045,-0.032,0.992,4.578,-5.005,36.255
-0.049,-0.066,0.973,4.639,-3.418,38.269
-0.084,-0.095,0.982,5.310,-2.930,37.842
-0.119,-0.151,1.004,5.676,-1.282,34.790
-0.123,-0.114,1.004,4.944,0.671,29.846
-0.043,-0.019,0.967,3.662,1.709,25.269
-0.052,0.021,0.975,4.333,-0.122,25.269
-0.077,-0.004,0.995,5.371,1.526,27.832
-0.095,-0.040,0.970,5.066,1.282,29.053
-0.112,-0.061,0.975,5.127,-0.305,28.564
-0.138,-0.071,1.020,5.432,-0.366,26.428
-0.132,-0.060,0.994,3.601,0.000,23.071
-0.131,-0.036,0.972,2.014,-1.343,20.081
-0.135,-0.029,0.985,3.052,-1.953,18.921
-0.156,-0.048,0.992,3.906,-2.075,17.883
-0.144,-0.037,0.981,3.662,-2.502,16.052
-0.118,0.010,0.976,4.272,-3.723,14.465
-0.085,0.050,0.995,4.822,-4.333,14.221
-0.061,0.046,0.988,4.578,-4.089,15.625
-0.084,0.026,0.967,4.578,-4.822,17.639
-0.105,-0.023,0.978,5.676,-3.845,19.531
-0.122,-0.064,0.990,5.920,-0.854,19.653
-0.137,-0.070,1.000,5.310,0.122,18.250
-0.128,-0.061,1.002,4.517,0.122,15.747
-0.149,-0.079,1.004,4.089,-0.854,13.733
-0.157,-0.083,1.001,2.258,-2.502,10.620
-0.139,-0.063,0.993,1.038,-4.211,7.446
-0.141,-0.032,0.990,1.099,-7.324,5.127
-0.115,0.027,0.980,1.404,-10.742,3.845
-0.093,0.067,0.976,2.625,-13.611,4.883
-0.119,0.043,0.974,3.967,-15.808,8.179
-0.146,0.002,0.956,5.005,-16.663,10.559
-0.189,-0.031,0.956,6.104,-15.747,11.230
-0.222,-0.086,0.973,7.446,-11.780,10.864
-0.245,-0.084,0.999,6.653,-7.202,8.118
-0.212,-0.065,0.992,5.188,-3.479,5.249
-0.200,-0.042,0.996,3.418,-3.357,2.991
-0.207,-0.034,0.988,3.418,-4.395,2.136
-0.220,-0.027,1.000,3.540,-6.775,1.099
-0.382,-0.162,1.132,3.357,-10.010,1.038
-0.219,0.065,1.084,-2.319,-10.254,-2.686
-0.034,0.235,0.886,-6.409,-12.573,-4.456
-0.079,0.066,0.754,2.197,-30.945,3.845
-0.390,-0.058,0.907,10.559,-37.781,11.108
-0.335,-0.073,1.052,8.972,-13.855,8.789
-0.192,-0.012,1.042,3.357,4.028,3.235
-0.218,0.038,0.989,1.404,-5.249,1.221
-0.152,0.124,0.946,1.038,-8.911,2.380
-0.168,0.024,0.970,1.465,-6.470,7.690
-0.218,-0.053,0.971,2.747,-5.371,12.634
-0.230,-0.083,0.960,4.700,-3.357,13.367
-0.328,-0.127,1.025,4.639,-2.014,10.986
-0.303,-0.043,1.057,2.441,1.099,6.226
-0.223,0.052,1.007,-0.244,-1.038,2.930
-0.242,0.082,0.948,-2.625,-11.353,3.296

0.037,-0.078,1.007,2.319,1.770,-3.418
0.068,-0.087,1.001,0.305,2.258,-4.150
0.128,-0.088,1.001,-1.221,2.258,-4.517
0.092,-0.102,1.027,-3.113,1.587,-4.883
0.216,-0.138,1.006,-7.629,0.732,-8.728
0.380,-0.200,1.288,-9.583,0.549,-9.766
0.716,-0.094,0.709,-18.921,-8.667,-10.315
0.281,-0.100,0.899,-10.803,-9.644,-0.671
0.461,-0.210,1.005,4.456,-0.793,2.258
0.465,-0.098,0.936,1.343,1.587,-3.723
0.520,-0.014,0.963,1.038,-0.610,-4.456
0.502,0.017,0.952,1.465,-0.671,-2.441
0.464,0.023,0.976,2.258,-0.427,1.038
0.462,0.019,0.932,2.014,-2.930,3.540
0.453,0.008,0.947,1.892,-4.456,6.104
0.450,-0.005,0.979,4.150,-2.563,9.460
0.390,-0.036,0.971,3.052,-3.296,11.292
0.422,0.011,0.939,2.197,-3.601,11.414
0.399,0.036,0.959,2.930,-3.418,13.245
0.368,0.007,0.964,4.578,-1.526,17.090
0.330,-0.036,0.983,4.211,0.916,20.752
0.278,-0.054,0.974,2.563,1.099,22.156
0.258,-0.062,1.000,1.282,0.000,21.484
0.233,0.045,0.933,-0.977,-2.319,19.836
0.248,0.082,0.915,0.549,-1.465,21.179
0.257,0.066,0.981,3.967,0.793,24.719
0.198,0.054,0.982,4.700,-0.549,28.076
0.183,0.010,0.980,1.953,-2.319,29.663
0.149,-0.021,0.988,1.343,-0.427,31.250
0.114,-0.079,0.995,1.343,0.610,31.799
0.088,-0.111,0.994,-0.061,0.854,30.151
0.048,-0.155,0.980,-1.221,0.671,27.222
0.004,-0.198,0.996,0.549,2.869,22.644
-0.036,-0.191,0.975,0.000,0.916,15.381
0.058,0.028,0.922,0.305,-0.732,8.423
0.175,0.207,0.936,3.418,-0.305,9.399
0.132,0.167,1.008,7.751,1.038,20.081
0.053,0.081,1.034,6.348,1.160,28.992
0.096,0.031,1.016,2.136,2.991,33.081
0.103,0.005,0.948,-1.465,2.075,34.363
0.100,-0.047,0.951,0.183,1.587,35.400
0.047,-0.099,0.993,3.540,2.197,35.034
0.023,-0.137,0.994,2.991,1.099,30.457
0.023,-0.160,0.983,0.916,0.732,24.048
-0.029,-0.122,0.977,-0.488,-1.343,17.822
0.043,0.032,0.918,-1.343,-3.113,13.184
0.077,0.079,0.933,2.441,-1.892,15.869
0.048,0.075,0.992,6.958,-0.366,22.522
0.052,0.028,0.975,6.714,-0.122,26.550
0.023,-0.017,0.960,5.432,-0.977,29.053
0.033,-0.042,0.971,6.592,-0.061,30.151
0.001,-0.056,0.981,7.507,-0.183,28.931
0.012,-0.094,1.005,7.812,1.709,27.344
-0.030,-0.129,0.991,5.981,-0.122,24.841
-0.068,-0.180,1.001,4.395,-1.587,21.606
-0.085,-0.203,1.024,3.479,-1.038,17.578
-0.096,-0.143,0.976,0.488,-2.136,12.024
-0.038,-0.026,0.962,-0.122,-1.221,8.606
-0.004,0.089,0.932,0.916,-1.587,9.888
-0.010,0.069,0.964,4.211,0.122,15.808
-0.076,0.023,0.990,5.493,0.061,20.874
-0.112,-0.025,0.976,4.700,-0.610,22.705
-0.123,-0.047,0.977,5.615,0.305,22.461
-0.120,-0.060,0.942,5.981,-0.183,21.484
-0.269,-0.101,0.955,8.545,-0.122,20.813
-0.172,-0.227,1.044,11.230,3.662,17.822
-0.265,-0.105,0.982,7.629,2.258,12.329
-0.167,-0.055,1.012,8.667,9.521,10.193
-0.257,-0.010,0.992,7.996,7.996,8.728
-0.287,0.082,0.998,8.911,10.559,7.935
-0.218,0.158,1.016,10.742,12.329,11.719
-0.023,0.139,0.960,9.705,7.690,19.653
-0.182,0.121,0.954,2.991,-10.620,25.330
-0.376,0.050,1.045,-1.526,-19.531,27.161
-0.329,-0.103,1.010,-0.732,-7.690,27.161
-0.240,-0.198,0.971,1.648,2.869,23.315
-0.325,-0.097,0.934,1.221,-3.357,15.686
-0.023,-0.062,1.043,7.019,1.465,13.794
-0.323,0.134,1.017,4.822,-11.597,13.123
-0.147,0.173,0.961,2.197,-0.122,15.015
-0.251,0.172,0.983,4.089,1.099,21.423
-0.319,0.110,1.004,4.578,0.122,26.428
-0.348,0.087,1.010,5.249,2.258,28.320
-0.361,0.095,1.001,3.418,0.000,28.870
-0.348,0.088,1.000,2.319,-0.549,30.762
-0.337,0.018,0.991,1.892,-1.282,32.898
-0.335,-0.097,0.987,1.831,-2.258,33.386
-0.357,-0.201,0.965,2.563,-3.845,30.640
-0.328,-0.233,0.980,4.944,-3.540,24.841
-0.265,-0.214,0.986,5.981,-3.235,17.029
-0.233,-0.187,1.002,6.348,-3.662,10.681
-0.203,-0.159,1.036,5.310,-2.563,6.470
-0.178,-0.119,1.012,1.526,-1.709,2.563
-0.170,-0.081,0.960,-0.854,-1.892,-0.122
-0.185,-0.068,0.967,0.671,-1.831,-0.793
-0.196,-0.074,1.000,2.075,-0.916,-0.916
-0.181,-0.065,0.996,1.648,-0.061,-1.587
-0.185,-0.110,0.986,0.916,0.732,-2.136
-0.216,-0.145,1.001,0.916,2.441,-3.479
-0.158,-0.109,0.978,0.122,3.906,-7.263
-0.087,-0.022,0.927,0.183,2.136,-10.864
0.151,0.062,0.930,3.357,2.197,-10.803
0.079,-0.006,1.070,11.963,6.775,-5.127
-0.091,0.074,0.893,12.085,-7.812,-4.089
0.018,-0.065,1.109,13.062,0.305,-2.808
-0.036,0.009,1.014,7.629,-4.517,-5.737
-0.049,0.090,0.901,3.235,-8.423,-7.141
0.006,0.048,1.004,7.629,-0.122,-3.357
-0.065,0.055,0.951,8.484,-2.563,-0.427
-0.069,-0.058,1.049,6.348,-1.099,1.160
-0.098,-0.059,0.987,4.822,-0.549,-0.793
-0.109,-0.046,0.972,3.479,-2.502,-2.747
-0.130,-0.009,0.969,3.662,-4.089,-3.418
-0.111,-0.024,1.007,4.944,-0.854,-2.502
-0.154,-0.046,1.001,4.883,-2.441,-2.502
-0.145,-0.052,0.973,3.235,-4.822,-3.479
-0.148,-0.058,0.991,3.418,-3.540,-3.479
-0.121,-0.042,0.986,3.357,-3.357,-3.540
-0.064,-0.006,0.967,3.052,-3.113,-3.296

-0.005,-0.041,0.997,6.653,0.122,3.174
-0.007,-0.044,0.996,5.493,0.793,2.502
-0.007,-0.049,1.001,4.333,1.160,2.380
0.004,-0.064,0.997,2.930,1.770,2.075
0.006,-0.077,0.994,1.709,2.380,0.854
0.039,-0.062,0.991,1.160,2.441,-1.160
0.057,-0.054,0.993,0.488,2.441,-2.563
0.143,-0.045,0.979,-0.244,2.747,-3.052
0.122,-0.035,0.995,-1.404,2.502,-3.479
0.209,-0.026,0.983,-1.526,4.089,-3.845
0.367,-0.013,1.221,-0.732,4.517,-4.028
0.255,0.073,1.013,-3.357,2.380,-4.883
0.482,-0.054,0.941,-6.165,4.944,-5.615
0.228,0.118,0.911,-6.653,-2.808,-3.662
0.317,0.064,0.965,-1.221,-0.305,-2.625
0.360,0.044,0.947,2.502,5.981,-0.793
0.312,0.046,0.976,1.160,1.587,0.732
0.320,0.026,0.973,0.549,1.770,3.174
0.324,-0.016,0.937,0.549,1.038,5.493
0.306,-0.083,0.957,1.648,-0.610,7.202
0.262,-0.140,0.988,2.014,-1.343,6.348
0.262,-0.134,0.991,1.282,-0.854,3.479
0.259,-0.115,0.972,0.610,0.000,0.305
0.257,-0.106,0.956,0.183,0.732,-1.953
0.242,-0.136,0.954,1.221,0.427,-2.625
0.218,-0.167,0.967,2.319,-0.427,-3.601
0.228,-0.153,0.970,2.808,-1.465,-6.409
0.250,-0.087,0.970,2.502,-2.563,-9.583
0.318,0.023,0.965,2.686,-2.197,-9.399
0.311,0.044,0.989,3.174,-1.465,-4.150
0.294,0.040,0.984,2.197,-0.610,2.258
0.272,0.015,0.957,1.282,-0.488,7.690
0.222,-0.056,0.974,1.892,-1.099,11.475
0.173,-0.113,0.975,2.258,-1.099,11.597
0.150,-0.141,0.965,1.770,-1.831,8.301
0.120,-0.116,0.997,1.282,-2.991,4.150
0.165,-0.067,0.985,0.427,-1.892,0.488
0.170,-0.010,0.941,0.610,-1.038,-0.671
0.170,-0.003,0.936,3.906,-0.244,1.221
0.138,-0.034,0.971,8.423,0.671,4.272
0.131,-0.038,0.996,10.376,1.038,5.920
0.124,-0.026,0.995,9.827,1.160,6.958
0.111,-0.018,0.989,8.850,-0.305,8.301
0.100,-0.045,0.997,9.033,-0.061,10.681
0.104,-0.038,0.996,8.423,0.061,12.024
0.025,-0.052,0.941,8.301,-0.610,12.634
0.079,-0.064,0.962,8.057,6.653,12.329
0.120,-0.005,0.958,5.920,9.277,10.864
0.127,0.033,0.982,4.028,3.479,10.620
0.145,0.036,1.001,4.517,1.892,12.817
0.119,0.011,0.992,5.371,0.854,15.747
0.133,0.010,0.998,5.737,3.113,17.700
0.115,-0.001,0.985,5.981,2.869,19.043
0.082,-0.010,0.979,5.310,2.014,19.470
0.064,-0.019,0.990,4.028,3.723,19.287
0.058,-0.019,1.005,2.441,5.188,18.921
0.059,-0.017,0.988,0.549,3.662,18.250
0.076,0.029,0.939,-0.488,1.831,17.883
0.126,0.101,0.907,1.404,1.770,19.104
0.125,0.114,0.913,6.287,0.549,24.109
0.090,0.068,0.927,10.132,-1.404,30.151
0.057,0.011,0.943,9.277,-1.160,34.180
0.047,-0.026,1.004,4.761,-0.793,35.400
-0.022,-0.039,1.016,0.183,-5.554,34.729
-0.047,-0.058,1.028,-0.366,-6.287,33.752
-0.055,-0.074,1.002,1.343,-4.333,32.227
-0.032,-0.096,0.971,3.845,-2.869,29.907
-0.002,-0.082,0.948,4.944,-2.625,25.696
0.006,-0.029,0.954,5.066,-4.150,22.278
-0.012,-0.012,0.968,5.371,-5.432,20.813
-0.003,-0.009,1.003,4.822,-4.333,20.386
0.015,0.051,1.000,2.686,-3.296,20.203
0.008,0.084,1.000,2.502,-3.052,22.949
0.019,0.084,1.000,4.028,-1.404,27.893
0.002,0.039,1.001,5.493,0.549,32.593
-0.027,-0.020,0.990,5.188,1.831,34.912
-0.074,-0.081,0.974,3.601,1.221,33.813
-0.123,-0.105,0.989,2.014,0.061,29.358
-0.157,-0.096,0.996,0.732,-0.427,23.315
-0.133,-0.025,0.993,0.244,0.244,18.066
-0.123,0.036,0.989,1.099,0.061,15.137
-0.092,0.059,1.006,3.357,1.160,15.686
-0.079,0.071,0.981,3.235,1.160,17.639
-0.092,0.019,0.974,2.441,1.282,20.081
-0.136,-0.026,0.981,1.160,-0.122,21.118
-0.193,-0.068,0.990,-0.061,-0.366,19.653
-0.212,-0.077,0.982,-1.465,1.709,16.541
-0.203,-0.066,1.020,-2.502,4.028,12.695
-0.265,-0.074,1.011,-1.892,0.793,9.216
-0.256,-0.060,0.999,0.427,0.671,6.104
-0.208,0.022,0.963,1.953,1.038,2.869
-0.188,0.046,0.948,4.883,-0.122,2.869
-0.216,0.016,1.004,8.423,-0.610,5.554
-0.219,0.028,1.026,7.446,-1.038,5.920
-0.201,0.062,1.024,3.174,-0.488,4.883
-0.157,0.124,0.998,-0.916,0.244,4.578
-0.150,0.096,0.975,-2.991,0.305,6.653
-0.172,0.025,0.983,-3.845,0.366,9.644
-0.158,-0.051,0.974,-5.920,-0.305,9.644
-0.190,-0.104,0.961,-8.179,-2.625,7.507
-0.204,-0.151,1.001,-6.592,-2.991,5.249
-0.208,-0.152,1.017,-3.723,-2.563,1.953
-0.182,-0.102,1.026,-2.502,-0.854,-2.258
-0.159,-0.060,1.014,-0.549,0.488,-3.479
-0.126,0.002,0.981,0.916,0.916,-3.540
-0.079,0.038,0.937,1.465,0.793,-2.441
-0.037,0.036,0.910,0.793,0.427,1.221
-0.034,-0.003,0.935,-0.488,-0.244,5.310
-0.053,-0.023,1.005,-2.197,-1.465,7.996
-0.051,-0.013,1.041,-2.686,-2.991,9.399
-0.063,-0.061,1.024,-0.793,-2.747,11.353
-0.062,-0.096,1.008,1.648,-0.488,11.780
-0.075,-0.104,0.951,1.404,-0.610,9.216
-0.103,-0.093,0.892,2.747,-3.723,6.531
-0.127,-0.091,0.849,7.080,-7.019,5.249
-0.157,-0.092,0.830,11.963,-11.841,4.700
-0.241,-0.034,0.918,18.005,-16.907,4.822
-0.218,-0.120,0.969,33.813,-17.517,8.484
-0.234,-0.096,1.036,39.001,-16.357,8.240

-0.006,-0.044,0.996,1.953,1.099,0.854
-0.004,-0.043,1.000,0.488,1.404,0.061
-0.033,-0.054,1.001,-1.404,1.648,-1.099
0.026,-0.057,1.004,-3.052,1.343,-3.174
0.089,-0.050,0.939,-3.784,1.892,-3.296
0.166,-0.121,0.963,-6.348,0.183,-2.136
0.193,-0.025,0.923,-10.681,-3.784,-2.747
0.266,-0.031,0.934,-6.226,2.930,-0.793
0.289,-0.107,0.974,-2.258,2.930,2.930
0.314,-0.125,0.942,-1.160,2.991,1.892
0.344,-0.125,0.940,0.732,2.563,-1.465
0.389,-0.102,0.971,3.357,2.686,-4.517
0.415,-0.040,0.987,3.906,2.747,-7.568
0.472,0.039,0.978,2.441,2.625,-9.583
0.514,0.138,0.961,1.221,1.831,-8.789
0.529,0.184,0.950,0.549,0.244,-4.883
0.529,0.192,0.926,0.793,-1.465,1.587
0.493,0.125,0.927,2.258,-3.052,9.338
0.420,0.055,0.950,4.395,-3.174,15.747
0.385,-0.015,0.983,5.737,-1.160,19.409
0.343,-0.054,0.987,5.188,0.671,20.142
0.309,-0.067,0.969,3.479,0.854,18.982
0.297,-0.078,0.973,3.113,1.648,17.395
0.272,-0.096,0.979,2.869,0.916,14.954
0.228,-0.145,0.974,2.441,0.549,11.780
0.210,-0.132,0.962,2.625,0.732,7.874
0.272,-0.023,0.930,2.991,-0.732,4.700
0.333,0.044,0.994,5.554,-1.343,6.348
0.281,0.074,0.994,5.371,-4.883,10.437
0.244,0.073,0.976,3.052,-3.845,14.832
0.236,0.027,0.985,4.517,1.892,21.118
0.221,0.007,0.977,3.113,2.563,24.780
0.198,-0.045,0.938,0.488,1.526,26.611
0.133,-0.121,0.945,0.732,2.441,27.344
0.092,-0.201,0.953,2.808,3.601,24.963
0.048,-0.286,0.990,5.005,3.296,19.226
0.036,-0.262,0.995,4.517,1.953,9.827
0.107,-0.094,0.955,3.540,-0.549,0.244
0.145,0.046,1.007,4.700,-3.418,-2.625
0.190,0.201,0.940,4.639,-2.930,1.404
0.277,0.223,1.014,4.150,5.127,10.193
0.213,0.178,0.966,4.456,1.404,21.973
0.198,0.067,0.987,4.456,2.197,30.579
0.176,-0.029,0.966,4.517,2.563,34.668
0.111,-0.124,0.943,4.211,0.549,33.386
0.058,-0.177,0.973,5.920,-1.160,28.687
0.045,-0.199,1.007,7.263,0.061,21.484
0.035,-0.193,1.006,5.249,1.282,13.550
0.031,-0.146,0.990,2.625,2.258,6.287
0.097,-0.013,0.985,1.221,2.930,1.160
0.201,0.158,0.954,0.000,0.977,0.793
0.218,0.208,0.944,1.221,-0.610,8.484
0.186,0.181,0.944,3.662,-0.244,19.470
0.170,0.077,0.950,6.042,1.221,28.870
0.065,-0.062,0.959,7.751,1.343,33.508
0.031,-0.161,0.994,8.240,0.977,31.128
-0.002,-0.145,0.965,7.935,-1.953,26.123
-0.017,-0.154,1.006,8.667,-1.160,20.813
-0.019,-0.129,1.000,6.958,-0.366,14.954
-0.025,-0.088,0.979,4.517,-2.014,10.620
-0.010,-0.053,0.984,4.211,-1.831,9.277
-0.056,-0.065,0.996,4.700,-0.488,9.827
-0.081,0.009,0.999,4.028,0.854,10.071
-0.050,0.106,0.995,2.197,1.221,11.780
-0.053,0.123,1.007,0.671,2.258,16.846
-0.089,0.074,1.017,-0.549,3.479,22.705
-0.148,-0.021,1.005,-2.808,3.601,25.879
-0.198,-0.104,0.990,-2.747,5.188,25.696
-0.251,-0.140,0.942,-1.221,5.920,21.912
-0.210,-0.173,0.911,2.075,5.432,15.259
-0.263,-0.113,0.933,4.944,2.563,8.545
-0.307,-0.071,0.985,6.836,0.427,3.967
-0.320,-0.010,0.989,6.042,-0.549,0.793
-0.300,0.047,0.972,5.432,-0.916,0.793
-0.294,0.064,1.001,8.057,-0.427,3.784
-0.257,0.019,1.008,12.390,-0.916,8.545
-0.235,0.001,1.002,10.376,-3.540,9.644
-0.286,-0.098,1.064,7.446,-4.395,10.437
-0.314,-0.140,1.004,4.333,-2.136,8.911
-0.283,-0.150,0.974,5.371,0.793,5.005
-0.301,-0.073,1.022,8.118,0.366,0.671
-0.264,0.039,1.024,7.874,0.366,-1.770
-0.233,0.092,0.984,6.226,0.305,-0.244
-0.233,0.057,0.958,5.371,-0.488,4.028
-0.291,-0.015,0.978,3.662,-2.686,7.080
-0.349,-0.097,1.002,2.625,-3.967,7.141
-0.357,-0.100,1.003,3.418,-3.296,4.456
-0.328,-0.040,1.033,4.517,-1.831,1.099
-0.255,0.029,1.011,3.845,0.793,-0.122
-0.206,0.075,0.973,2.563,1.282,1.709
-0.181,0.058,0.978,2.502,-0.366,6.470
-0.176,0.022,0.984,0.549,-2.686,11.108
-0.198,-0.021,0.981,-2.075,-4.578,14.160
-0.224,-0.119,0.979,-0.549,-5.432,17.029
-0.222,-0.165,0.998,2.014,-5.554,16.479
-0.198,-0.152,0.993,2.625,-5.371,12.390
-0.156,-0.138,0.993,3.479,-3.784,9.521
-0.131,-0.161,1.035,3.845,-2.075,6.714
-0.134,-0.144,0.969,2.686,-3.479,3.113
-0.166,-0.102,0.983,2.441,-2.991,-0.916
-0.108,-0.051,1.000,4.089,2.563,-3.357
-0.131,-0.003,0.979,2.991,0.793,-3.967
-0.125,0.035,0.978,2.930,-0.427,-3.601
-0.127,0.065,0.968,3.540,-2.502,-2.380
-0.167,0.037,0.982,4.395,-4.150,0.793
-0.187,0.002,0.983,4.822,-5.188,2.930
-0.182,-0.008,0.976,5.066,-5.615,2.869
-0.169,-0.005,0.977,5.859,-6.470,2.258
-0.159,-0.020,0.994,6.470,-7.385,1.953
-0.172,-0.032,1.007,6.409,-7.446,1.892
-0.159,-0.026,1.005,4.761,-5.615,1.831
-0.134,-0.037,0.985,3.235,-3.296,2.136
-0.137,-0.039,0.987,2.930,-1.831,2.136
-0.116,-0.010,0.977,3.235,-1.526,1.587
-0.101,0.001,0.982,3.113,-1.648,1.770
-0.114,-0.009,0.986,3.418,-2.319,3.113
-0.097,-0.012,0.989,3.357,-1.892,3.967
-0.076,-0.031,0.989,2.930,-0.916,4.272
-0.058,-0.038,0.990,2.258,-0.305,4.028

0.012,-0.080,0.974,0.244,1.404,-4.028
0.000,-0.079,0.977,0.916,0.916,-5.554
0.049,-0.051,0.969,1.648,1.038,-7.629
-0.002,-0.046,1.005,2.441,0.183,-7.629
0.075,-0.042,0.988,0.916,0.183,-8.667
0.082,-0.007,0.992,-0.732,0.427,-10.376
0.407,0.000,1.045,-0.671,-0.732,-8.850
0.103,0.045,1.003,-0.671,-6.714,-2.563
0.136,-0.118,0.924,-1.709,-2.991,0.793
0.261,-0.090,0.968,1.282,3.479,-1.953
0.354,-0.037,0.967,2.319,3.601,-3.601
0.414,-0.020,0.967,2.747,3.845,-4.089
0.441,0.010,0.969,2.686,3.479,-4.517
0.470,0.047,0.959,2.563,3.540,-4.822
0.455,0.054,0.962,2.869,3.296,-3.906
0.473,0.037,0.961,3.235,3.296,-2.502
0.482,0.022,0.959,3.418,3.357,-0.732
0.499,0.004,0.961,3.662,3.052,1.770
0.509,-0.017,0.958,3.723,2.563,4.272
0.496,-0.057,0.963,3.967,2.747,5.554
0.488,-0.111,0.963,3.845,3.601,5.310
0.478,-0.105,0.962,3.540,2.930,3.723
0.536,-0.003,0.940,2.075,0.061,2.075
0.588,0.078,0.943,2.747,-2.197,4.944
0.583,0.074,0.969,4.761,-1.526,12.573
0.545,0.042,0.970,4.639,-0.793,20.508
0.499,-0.021,0.964,3.296,0.061,26.794
0.436,-0.076,0.942,1.953,-1.099,29.907
0.358,-0.141,0.968,1.648,-2.136,29.724
0.306,-0.182,0.981,1.099,-1.648,26.917
0.275,-0.210,0.970,0.183,-0.244,22.095
0.178,-0.217,0.984,-1.587,-0.793,16.418
0.188,-0.152,0.989,-2.258,0.854,10.376
0.276,0.054,0.938,-2.808,-0.854,7.019
0.198,0.145,0.966,-2.319,-9.583,10.376
0.175,0.077,0.990,1.465,-7.080,18.982
0.077,-0.021,0.967,2.625,-5.249,27.649
0.073,-0.038,0.959,1.648,-2.625,30.762
0.031,-0.091,0.986,3.174,-0.671,32.349
0.010,-0.099,0.990,3.235,-2.197,32.166
-0.003,-0.112,1.001,3.174,-2.197,30.823
-0.034,-0.124,0.984,2.380,-1.404,28.625
-0.059,-0.171,0.988,1.770,-0.732,25.635
-0.102,-0.208,0.984,1.648,-0.305,21.362
-0.144,-0.172,0.948,1.770,-0.244,15.503
-0.073,-0.054,0.988,2.869,0.122,9.827
-0.046,0.102,0.946,2.319,-6.226,9.338
-0.024,0.147,0.962,4.517,-4.883,15.869
-0.045,0.088,0.994,7.446,-1.221,24.719
-0.083,-0.009,0.993,7.080,-1.526,29.724
-0.118,-0.080,1.001,5.615,-0.854,30.090
-0.105,-0.115,1.002,4.272,1.709,26.978
-0.137,-0.158,1.014,3.357,4.456,22.339
-0.108,-0.122,1.001,1.953,6.592,16.235
-0.072,-0.055,0.984,0.610,5.310,10.742
-0.066,-0.010,0.968,-0.244,3.845,9.033
-0.053,-0.011,0.975,0.793,3.113,9.888
-0.076,-0.003,0.957,1.465,0.122,10.254
-0.081,0.017,0.977,2.563,-0.732,10.376
-0.062,0.029,0.989,2.563,-1.160,10.742
-0.023,0.069,0.961,1.465,-2.441,12.634
-0.020,0.041,0.952,2.380,-1.587,15.442
-0.055,0.004,0.974,4.883,0.793,17.517
-0.065,-0.046,0.971,6.348,2.014,18.005
-0.103,-0.066,0.970,7.202,2.197,16.357
-0.085,-0.057,0.955,8.484,1.770,13.855
-0.099,-0.028,0.954,10.254,0.000,11.780
-0.111,-0.077,1.010,12.634,-0.305,11.108
-0.168,-0.107,1.033,10.803,-1.282,9.277
-0.166,-0.105,1.001,5.859,-1.099,5.615
-0.173,-0.048,1.011,4.883,0.427,2.869
-0.138,0.049,1.001,3.662,0.610,0.977
-0.067,0.136,0.968,2.563,0.977,2.441
-0.057,0.137,0.982,3.723,1.465,7.812
-0.086,0.099,0.991,4.761,1.953,14.282
-0.113,0.032,0.976,3.296,0.488,18.250
-0.174,-0.052,0.984,2.808,-0.488,19.958
-0.220,-0.122,0.990,3.357,-0.793,18.860
-0.250,-0.131,0.993,3.601,-1.099,14.832
-0.232,-0.082,0.992,3.784,-1.160,9.705
-0.227,-0.040,0.981,4.333,-0.793,6.653
-0.216,-0.031,0.998,5.859,0.000,5.615
-0.215,-0.026,1.002,6.042,0.244,5.188
-0.203,-0.003,1.000,5.188,0.793,5.066
-0.192,0.018,0.984,4.883,0.916,5.737
-0.163,0.073,0.986,4.272,0.549,7.507
-0.157,0.103,0.992,3.723,-0.366,11.169
-0.175,0.104,1.001,2.563,-1.282,16.418
-0.192,0.036,0.986,1.404,-1.587,21.423
-0.247,-0.065,0.990,1.953,-1.709,24.719
-0.279,-0.125,0.999,2.502,-2.136,23.743
-0.284,-0.150,0.986,2.197,-1.709,19.531
-0.292,-0.159,0.967,3.052,-2.319,14.526
-0.307,-0.167,0.976,4.822,-2.625,10.498
-0.297,-0.120,1.001,5.798,-3.296,6.653
-0.246,-0.042,0.996,5.310,-4.272,4.150
-0.223,0.001,0.986,4.517,-5.310,5.127
-0.222,0.009,1.000,4.700,-5.554,8.789
-0.228,-0.012,1.001,4.333,-5.737,12.268
-0.263,-0.049,1.008,3.418,-6.348,14.709
-0.282,-0.062,1.007,2.380,-6.531,15.564
-0.273,-0.051,0.997,0.488,-6.958,14.221
-0.260,-0.055,0.968,-0.305,-8.911,12.878
-0.264,-0.063,0.964,0.916,-11.169,12.207
-0.261,-0.115,0.979,3.052,-11.597,11.902
-0.270,-0.134,0.995,3.906,-11.658,9.766
-0.248,-0.103,0.990,3.540,-11.902,5.432
-0.213,-0.053,0.980,3.235,-11.475,2.014
-0.194,-0.019,0.986,3.174,-10.620,0.610
-0.193,-0.032,1.003,2.930,-9.949,0.793
-0.144,-0.003,0.992,1.648,-8.545,0.488
-0.067,0.041,0.963,0.793,-6.531,0.427
-0.055,0.048,0.964,1.526,-3.845,1.953
-0.059,0.030,0.978,2.991,-2.747,5.005
-0.052,0.038,0.964,3.662,-3.357,6.653
-0.068,0.051,0.965,4.456,-3.845,8.118
-0.081,0.002,0.968,5.615,-2.991,10.559
-0.113,-0.037,0.992,6.287,-1.404,11.597
-0.105,-0.049,1.002,5.432,1.099,10.498

-0.039,-0.033,1.003,4.211,0.366,1.648
-0.022,-0.044,1.001,2.075,3.235,-0.061
-0.020,-0.053,0.998,0.732,4.700,-1.709
-0.043,-0.046,1.003,-0.244,4.822,-3.723
0.021,-0.033,1.000,-1.953,4.883,-6.470
0.126,-0.036,0.983,-3.723,3.784,-7.568
0.091,-0.055,1.163,-4.517,3.723,-8.545
0.365,-0.050,0.971,-9.705,2.258,-12.695
0.464,0.131,0.789,-6.775,0.854,-7.446
0.065,-0.098,1.058,0.610,-6.592,2.136
0.369,-0.112,0.942,1.099,5.798,-2.502
0.323,-0.055,0.939,0.549,4.272,-6.897
0.452,-0.004,0.968,2.075,2.319,-9.705
0.448,0.057,0.988,2.808,1.770,-9.094
0.487,0.091,0.963,1.770,2.991,-6.897
0.454,0.063,0.959,1.465,2.136,-3.784
0.432,0.049,0.953,0.610,0.671,-1.099
0.400,0.025,0.938,-0.183,-0.916,1.160
0.377,-0.009,0.950,1.770,-0.732,3.784
0.353,-0.073,0.970,3.479,-0.366,5.249
0.324,-0.094,0.977,3.052,-0.427,4.517
0.317,-0.096,0.973,1.282,0.000,2.747
0.292,-0.121,0.950,0.549,-0.122,1.587
0.243,-0.159,0.962,0.977,-1.343,-0.732
0.256,-0.072,0.947,1.648,-2.258,-4.456
0.321,0.094,0.937,2.869,-3.723,-5.615
0.334,0.149,0.993,5.615,-3.296,0.427
0.295,0.114,0.984,5.554,-1.831,10.254
0.267,0.032,0.967,5.188,1.221,18.860
0.196,-0.071,0.975,5.127,2.869,23.987
0.168,-0.120,0.972,4.517,3.052,24.353
0.155,-0.175,1.000,3.906,3.784,20.691
0.137,-0.189,0.976,3.845,-0.244,15.869
0.133,-0.166,0.973,-0.061,-5.737,8.118
0.124,-0.131,0.959,-1.160,-3.845,3.052
0.148,-0.058,0.970,-0.122,-0.549,0.854
0.207,0.026,0.942,0.427,0.122,0.061
0.194,0.018,0.954,1.953,-1.160,2.869
0.127,-0.019,0.992,3.357,-0.488,6.531
0.144,-0.014,0.992,3.845,2.380,8.789
0.164,0.002,0.991,3.723,3.723,10.681
0.148,0.026,0.937,4.456,2.319,13.184
0.211,0.057,1.001,5.005,5.676,15.625
0.190,0.049,0.967,4.578,2.502,19.714
0.182,-0.002,0.986,4.028,0.854,23.071
0.128,-0.098,1.005,3.723,0.732,24.902
0.077,-0.160,0.994,2.625,2.380,23.315
0.076,-0.129,0.972,0.610,2.747,18.494
0.113,-0.016,0.957,0.610,1.526,14.832
0.148,0.054,0.960,2.686,1.343,15.564
0.142,0.073,0.959,4.211,0.549,20.325
0.104,0.033,0.964,4.639,-0.854,26.062
0.052,-0.029,0.977,4.150,-1.526,29.907
0.021,-0.059,1.014,2.808,-1.587,30.884
0.008,-0.087,0.999,-0.305,-2.197,29.785
-0.018,-0.111,0.986,-3.052,-2.502,27.893
-0.008,-0.110,0.992,-3.662,-1.343,25.513
-0.008,-0.055,0.960,-5.676,-2.563,22.156
-0.008,-0.028,0.928,-4.883,-2.502,21.240
0.007,-0.065,0.961,0.854,1.221,22.766
-0.005,-0.030,0.943,4.089,0.244,22.339
-0.011,-0.021,0.956,6.287,-1.953,21.973
-0.017,-0.013,0.997,9.583,-1.648,22.705
-0.004,0.054,0.966,8.545,-3.357,22.766
-0.013,0.064,0.959,8.240,-4.517,25.146
-0.052,0.023,0.962,9.277,-5.798,28.748
-0.102,-0.067,0.968,10.376,-5.127,31.128
-0.136,-0.117,0.991,11.353,-3.540,30.090
-0.146,-0.147,1.040,10.742,-1.587,26.367
-0.132,-0.117,1.015,7.751,-0.488,21.179
-0.100,-0.058,0.980,3.357,-2.625,17.700
-0.079,-0.003,0.970,2.686,-2.625,16.357
-0.056,0.064,0.995,3.723,-2.625,17.334
-0.050,0.099,1.000,3.967,-1.831,20.874
-0.073,0.074,0.990,3.113,-0.977,25.146
-0.104,0.017,0.986,2.930,-0.122,28.381
-0.156,-0.041,0.983,3.479,-0.549,29.053
-0.163,-0.070,0.974,4.089,-1.221,26.917
-0.200,-0.096,0.968,5.005,-1.526,23.499
-0.222,-0.098,1.018,6.042,-1.099,19.775
-0.204,-0.037,0.993,4.028,-1.038,15.320
-0.209,-0.023,0.974,3.174,-1.282,13.428
-0.228,-0.052,1.002,4.578,0.549,13.245
-0.247,-0.057,1.015,4.028,0.916,11.108
-0.260,-0.029,1.006,1.892,0.793,7.874
-0.239,0.062,0.993,0.305,0.854,5.127
-0.214,0.112,0.968,0.305,1.038,5.737
-0.235,0.085,0.970,1.953,0.305,9.216
-0.286,0.019,0.980,3.906,-0.610,12.451
-0.314,-0.024,0.981,5.066,-1.099,13.000
-0.327,-0.071,0.987,5.920,-1.404,11.780
-0.342,-0.111,1.015,6.042,-0.854,8.972
-0.321,-0.118,1.012,4.883,0.488,4.272
-0.290,-0.082,1.001,3.479,1.038,-0.488
-0.254,-0.040,0.995,2.808,1.404,-2.930
-0.236,-0.026,0.980,3.113,2.258,-3.479
-0.216,0.018,0.974,3.601,2.380,-3.540
-0.167,0.059,0.936,4.761,1.343,-2.808
-0.159,0.047,0.897,8.118,-1.526,-0.366
-0.198,-0.049,0.976,14.526,-3.906,3.296
-0.228,-0.124,1.131,15.381,-2.014,4.028
-0.201,-0.068,1.029,7.263,-2.136,-0.549
-0.130,-0.030,0.953,1.221,-1.892,-3.174
-0.143,-0.048,0.965,2.563,-2.319,-2.502
-0.160,-0.089,0.992,4.639,-3.235,-2.075
-0.171,-0.106,0.985,4.822,-3.296,-3.174
-0.172,-0.082,0.974,4.822,-3.662,-4.944
-0.163,-0.084,1.000,5.615,-3.601,-6.409
-0.197,-0.068,1.013,5.188,-3.601,-6.653
-0.167,-0.017,0.994,3.540,-3.418,-7.202
-0.159,0.012,1.000,2.441,-4.333,-5.615
-0.161,0.014,0.986,1.770,-6.714,-3.418
-0.169,0.001,0.974,1.282,-9.277,-1.770
-0.164,-0.006,0.973,2.075,-11.353,-0.183
-0.154,-0.018,0.977,2.502,-12.390,0.854
-0.159,-0.041,0.994,3.540,-13.123,2.075
-0.201,-0.100,1.013,3.113,-13.000,2.380
-0.240,-0.151,1.029,1.648,-14.221,1.282
-0.140,-0.039,0.968,-1.099,-14.160,-3.174

0.036,-0.016,0.982,1.648,0.122,-6.531
0.058,-0.022,0.978,1.587,-0.977,-4.395
0.040,-0.041,0.996,1.221,-2.136,-1.892
0.035,-0.065,1.007,-0.122,-1.770,-0.977
0.093,-0.095,1.012,-2.380,0.366,-2.197
0.202,-0.062,0.967,-4.578,2.625,-4.883
0.061,-0.009,1.077,-5.554,0.732,-5.188
0.445,-0.068,1.015,-16.541,-2.686,-8.057
0.447,0.158,0.622,-17.029,-6.104,-2.319
0.277,-0.038,1.102,0.916,-6.226,8.545
0.381,-0.070,0.969,0.610,-3.357,4.883
0.363,-0.042,0.934,-1.953,-3.967,1.221
0.338,-0.047,0.968,0.610,-4.333,0.000
0.351,-0.022,0.979,1.526,-2.197,-0.793
0.373,0.011,0.959,1.160,0.854,-0.793
0.393,0.034,0.955,1.953,3.784,0.732
0.384,0.020,0.981,3.052,6.104,3.357
0.379,0.012,0.973,3.052,7.141,5.188
0.380,-0.017,0.943,2.197,5.371,5.615
0.336,-0.100,0.963,3.784,3.967,6.104
0.309,-0.146,0.987,3.296,2.136,3.540
0.299,-0.072,0.981,-1.465,-1.404,-1.526
0.382,0.115,0.932,-5.371,-3.845,-3.723
0.407,0.201,0.900,-2.258,-5.615,1.404
0.349,0.158,0.924,4.333,-5.188,12.573
0.241,0.019,0.993,9.033,-1.953,21.545
0.321,-0.145,1.158,8.484,-0.854,21.851
0.253,-0.165,1.217,0.977,-31.006,13.733
0.080,-0.152,1.153,-2.014,-78.613,5.615
-0.004,-0.140,0.929,-0.916,-92.224,1.465
-0.047,-0.107,0.766,2.136,-70.679,-0.610
-0.060,-0.078,0.650,5.005,-29.602,-1.404
0.018,-0.038,0.605,6.042,22.888,-0.671
0.114,0.015,0.720,6.287,67.688,1.221
0.162,0.123,0.867,3.479,91.492,3.479
0.607,0.238,1.658,5.432,99.854,10.498
-0.036,-0.005,1.196,17.761,32.410,22.644
0.207,0.071,0.926,-6.104,1.160,15.015
0.166,0.037,0.859,-0.854,3.662,18.860
0.040,0.011,0.928,5.127,-2.625,23.560
0.139,-0.040,1.053,7.874,8.179,22.827
0.061,-0.066,0.969,6.165,1.526,21.179
0.035,-0.113,0.959,4.761,-1.892,18.311
-0.013,-0.156,1.026,6.775,-0.122,15.564
0.024,-0.045,0.987,3.906,-0.183,10.254
0.082,0.059,0.951,2.930,0.793,9.094
0.061,0.080,0.977,5.005,1.709,14.160
0.021,0.018,0.997,5.493,2.991,20.325
0.003,-0.068,1.013,4.395,4.639,23.926
-0.037,-0.109,0.999,2.258,2.686,23.315
-0.037,-0.146,1.018,0.977,3.052,20.325
-0.038,-0.132,1.034,-0.244,3.967,15.991
-0.025,-0.116,1.032,-1.953,5.920,12.024
-0.019,-0.139,1.013,-3.235,7.507,8.423
-0.035,-0.153,0.973,-4.578,6.958,4.028
-0.035,-0.121,0.940,-6.042,7.629,-1.160
0.012,-0.011,0.916,-4.456,7.019,-3.967
0.077,0.145,0.846,-2.319,1.343,-4.456
0.121,0.226,0.843,2.014,-1.587,1.221
0.104,0.198,0.885,6.592,-4.517,11.353
0.060,0.106,0.940,8.057,-7.263,20.569
0.009,0.010,0.998,6.836,-10.315,26.062
-0.114,-0.007,1.113,5.859,-12.695,27.893
-0.093,-0.148,1.077,13.672,-7.080,30.151
-0.074,-0.151,1.027,10.132,-0.366,24.780
-0.112,-0.162,1.012,3.662,-3.479,18.433
-0.097,-0.147,1.020,1.221,-2.380,13.733
-0.101,-0.118,0.983,-1.465,-2.319,8.972
-0.085,-0.099,0.983,-1.953,-1.038,6.226
-0.087,-0.009,0.989,-2.075,-1.099,4.883
-0.035,0.090,0.967,-2.869,-1.343,5.676
-0.024,0.102,0.981,-1.770,-1.038,10.742
-0.047,0.075,1.006,-2.991,-2.319,15.991
-0.042,0.044,0.985,-5.493,-3.540,19.043
-0.073,-0.005,0.961,-6.287,-3.906,20.569
-0.090,-0.085,0.955,-3.540,-2.686,20.264
-0.115,-0.119,0.955,0.000,-1.221,16.846
-0.117,-0.110,0.957,2.808,-1.709,11.902
-0.100,-0.041,0.969,5.005,-2.197,7.019
-0.074,0.018,0.974,6.836,-2.686,3.967
-0.072,0.047,0.977,8.057,-3.052,3.174
-0.063,0.060,0.992,8.118,-3.418,3.601
-0.074,0.084,0.976,7.446,-4.639,4.089
-0.050,0.118,0.968,7.751,-4.578,5.310
-0.064,0.120,0.996,8.850,-3.906,8.606
-0.094,0.078,1.037,8.545,-3.174,12.756
-0.116,0.022,1.056,5.066,-1.648,15.442
-0.133,-0.026,1.049,0.122,-0.854,15.625
-0.146,-0.075,1.020,-4.456,0.122,13.550
-0.161,-0.085,1.001,-7.324,0.977,9.399
-0.143,-0.048,0.990,-8.972,0.610,4.028
-0.106,0.017,0.979,-8.972,1.343,0.244
-0.074,0.064,0.971,-8.362,1.526,-0.122
-0.059,0.075,0.978,-7.385,1.648,2.136
-0.048,0.070,0.982,-6.775,2.197,4.761
-0.053,0.052,0.963,-6.042,2.441,7.080
-0.048,0.078,0.949,-4.639,2.075,8.728
-0.056,0.083,0.918,-2.502,1.099,10.559
-0.082,0.021,0.913,2.380,1.038,13.062
-0.108,-0.026,0.908,7.568,0.000,12.878
-0.160,-0.079,0.920,13.794,-1.160,10.742
-0.156,-0.099,0.976,20.020,0.244,7.629
-0.149,-0.077,1.019,22.217,0.244,3.479
-0.145,-0.038,1.044,20.508,0.122,0.305
-0.133,-0.009,1.038,16.296,0.549,-1.526
-0.139,0.009,1.008,11.841,0.122,-1.770
-0.127,0.011,0.964,9.827,0.488,-0.854
-0.097,0.047,0.899,10.437,-0.244,-0.427
-0.049,0.055,0.864,16.357,-1.831,1.160
-0.035,0.003,0.976,25.208,-2.808,4.456
-0.049,-0.046,1.099,29.419,-3.662,6.470
-0.072,-0.082,1.149,21.240,-3.174,4.761
-0.010,-0.064,1.032,8.118,1.526,1.465
-0.040,-0.056,0.920,2.258,0.610,-0.732
-0.083,-0.089,0.953,5.920,1.343,-0.793
-0.127,-0.090,0.995,9.644,2.502,-2.258
-0.157,-0.042,0.979,9.766,1.526,-4.639
-0.156,0.013,0.966,10.071,1.465,-5.615
-0.169,0.007,1.008,10.620,0.183,-3.967

-0.015,-0.032,0.994,3.784,0.366,-0.122
-0.019,-0.037,0.998,2.991,1.221,-0.305
-0.017,-0.048,1.001,1.953,2.441,-0.366
-0.023,-0.062,1.000,1.099,3.845,-1.465
-0.026,-0.080,1.000,-0.183,4.639,-3.723
0.004,-0.071,1.002,-2.014,5.188,-7.385
0.074,-0.035,0.996,-3.235,5.920,-10.315
0.140,-0.052,0.993,-4.578,5.676,-10.803
0.261,-0.031,0.883,-5.554,5.371,-9.705
0.095,0.017,1.052,-4.761,1.892,-6.897
0.456,-0.127,0.947,-11.658,3.784,-5.493
0.479,-0.039,0.759,-9.644,4.578,-2.258
0.359,-0.154,1.018,2.563,5.737,1.648
0.537,-0.143,0.957,2.075,10.132,-4.395
0.504,-0.064,0.964,1.770,8.667,-8.850
0.592,-0.017,0.942,3.662,9.949,-11.475
0.588,0.011,0.941,6.287,7.446,-11.780
0.596,0.040,0.936,6.775,4.944,-10.742
0.588,0.072,0.943,5.066,4.517,-7.935
0.561,0.023,0.948,4.395,4.089,-3.540
0.510,-0.022,0.956,2.441,2.625,-0.732
0.437,-0.055,0.972,0.061,1.343,-0.061
0.433,-0.064,0.976,-2.563,1.953,-1.282
0.433,0.027,0.910,-3.784,0.183,-2.747
0.493,0.113,0.871,-0.671,-0.305,-1.160
0.432,0.094,0.914,5.737,-1.953,5.432
0.349,-0.013,0.998,10.620,-3.174,11.719
0.261,-0.083,1.034,9.277,-3.113,12.573
0.254,-0.122,0.983,5.676,-0.366,10.742
0.201,-0.176,0.991,3.418,1.343,8.423
0.156,-0.232,1.001,1.648,1.953,4.028
0.136,-0.257,0.996,0.000,3.235,-2.258
0.148,-0.171,0.967,-2.869,2.075,-10.437
0.189,0.007,0.947,-4.761,-1.160,-16.846
0.245,0.180,0.904,-3.784,-2.930,-16.174
0.251,0.239,0.896,0.183,-4.028,-8.057
0.237,0.241,0.897,4.333,-5.859,2.747
0.185,0.195,1.000,6.409,-9.338,12.878
0.032,0.125,1.044,6.836,-13.367,21.057
0.122,0.015,1.019,4.761,-3.967,25.574
0.067,-0.050,0.981,3.784,4.639,28.137
0.005,-0.107,0.987,0.854,-0.671,27.954
-0.022,-0.151,1.004,1.831,-1.038,25.330
-0.034,-0.186,0.983,1.648,-0.671,19.592
-0.053,-0.160,0.988,0.793,-1.465,13.184
-0.030,-0.093,0.955,0.610,-3.174,7.935
-0.007,-0.000,0.967,1.892,-4.150,5.615
0.026,0.091,0.998,3.296,-3.784,7.446
0.041,0.133,1.004,2.014,-3.479,12.634
0.028,0.127,1.011,-0.732,-3.052,19.165
0.006,0.075,1.029,-3.296,-0.732,25.452
-0.013,0.006,1.031,-6.104,2.441,29.236
-0.029,-0.043,0.984,-9.460,4.150,29.053
-0.047,-0.106,0.950,-10.132,4.700,26.855
-0.082,-0.132,0.949,-7.690,4.578,22.888
-0.079,-0.123,0.965,-3.723,5.005,17.578
-0.086,-0.121,1.000,-0.183,5.859,12.329
-0.087,-0.079,1.032,0.977,5.859,7.629
-0.049,0.037,0.999,0.854,5.737,3.845
0.055,0.162,0.924,1.892,4.272,4.700
0.077,0.175,0.870,4.456,2.258,10.986
0.053,0.091,0.876,5.676,1.160,18.677
0.008,-0.008,0.949,2.808,2.441,22.400
-0.062,-0.057,1.026,-0.671,0.610,22.278
-0.100,-0.072,1.055,-0.671,-1.770,20.325
-0.093,-0.099,1.027,3.357,1.099,17.456
-0.094,-0.131,1.005,6.165,5.066,13.855
-0.103,-0.132,0.990,6.653,5.798,9.277
-0.117,-0.099,1.000,5.615,6.104,4.395
-0.122,-0.048,1.026,5.127,7.202,1.282
-0.114,0.010,1.042,5.981,8.606,0.977
-0.074,0.042,1.005,2.441,9.583,1.709
-0.066,0.081,0.990,-3.296,9.033,3.174
-0.052,0.114,1.002,-8.057,7.263,5.554
-0.055,0.084,0.973,-9.705,3.662,9.399
-0.125,0.004,0.893,-10.254,2.625,11.963
-0.147,-0.088,0.884,-7.385,6.348,12.268
-0.140,-0.101,0.917,-2.075,7.080,10.559
-0.211,-0.102,0.928,3.235,1.709,6.592
-0.151,-0.074,0.936,7.812,-0.732,2.991
-0.133,-0.003,0.943,11.536,-3.662,0.427
-0.100,0.050,0.943,13.916,-6.897,0.366
-0.084,0.069,1.008,13.977,-7.751,2.563
-0.124,0.094,1.002,9.033,-12.085,4.944
-0.134,0.106,0.995,5.066,-12.634,8.118
-0.173,0.048,0.999,6.958,-11.780,13.367
-0.181,0.013,1.029,10.254,-9.583,17.883
-0.191,0.001,1.021,9.888,-8.606,19.287
-0.229,-0.028,1.025,10.437,-7.690,20.264
-0.186,-0.112,1.016,13.489,-3.296,21.057
-0.223,-0.099,0.997,11.597,-2.747,18.250
-0.198,-0.096,0.978,12.268,-1.404,15.686
-0.220,-0.102,0.958,14.221,-0.549,14.893
-0.253,-0.117,0.973,16.418,-2.441,14.587
-0.269,-0.118,0.997,19.348,-2.747,13.245
-0.266,-0.115,1.038,19.165,-2.747,10.864
-0.237,-0.073,1.067,14.954,-2.075,7.385
-0.201,-0.034,1.005,9.460,-2.075,4.639
-0.200,-0.032,0.987,7.019,-2.747,4.395
-0.214,-0.030,1.011,7.202,-2.319,5.127
-0.238,-0.010,1.012,6.165,-2.319,4.761
-0.224,0.041,0.997,4.395,-3.479,4.395
-0.204,0.073,0.965,3.723,-5.005,5.615
-0.217,0.038,0.963,4.028,-7.019,7.690
-0.207,-0.005,0.967,5.066,-7.568,9.399
-0.220,-0.084,0.996,5.798,-7.141,9.277
-0.247,-0.110,1.022,5.737,-6.165,6.470
-0.204,-0.097,1.009,4.150,-5.005,1.892
-0.163,-0.047,0.991,2.319,-4.639,-2.075
-0.151,-0.026,0.982,2.197,-4.150,-3.357
-0.113,0.012,1.007,2.197,-3.296,-3.662
-0.092,0.046,0.982,1.465,-3.296,-3.357
-0.088,0.028,0.966,1.099,-4.700,-2.197
-0.092,0.014,0.959,1.953,-5.371,0.305
-0.130,-0.049,0.973,3.784,-6.897,1.831
-0.144,-0.056,0.981,4.883,-7.324,1.343
-0.147,-0.053,1.030,5.188,-8.240,1.221
-0.140,-0.059,0.992,3.052,-8.484,0.366
-0.127,-0.039,0.974,1.892,-10.864,-1.343

-0.009,-0.054,1.006,3.906,0.977,2.563
-0.001,-0.045,1.007,1.587,2.869,2.197
-0.000,-0.040,1.009,-0.488,4.272,1.038
0.047,-0.002,1.000,-3.113,5.005,-0.305
0.139,0.042,1.016,-5.859,5.371,-1.038
0.119,0.059,0.866,-8.850,6.226,-0.916
0.212,-0.081,1.012,-9.338,2.991,-0.061
0.192,0.009,0.832,-14.832,-7.690,-3.784
0.292,-0.065,0.965,-2.808,4.639,-1.526
0.228,-0.075,0.994,0.183,1.709,-1.465
0.316,-0.063,0.948,-0.793,3.845,-3.357
0.353,-0.057,0.948,-0.549,1.953,-4.944
0.364,-0.028,0.996,0.916,1.343,-5.920
0.416,0.034,0.953,-0.488,1.465,-7.385
0.456,0.078,0.930,-0.732,0.488,-7.202
0.447,0.066,0.946,1.709,-0.122,-3.967
0.433,0.031,0.968,3.784,0.305,-0.244
0.391,-0.017,0.986,4.272,1.465,3.113
0.358,-0.079,0.991,3.052,3.113,4.150
0.321,-0.109,0.974,1.282,3.174,2.991
0.314,-0.109,0.985,-0.183,2.808,0.000
0.303,-0.057,0.971,-2.625,0.916,-3.479
0.362,0.078,0.913,-4.211,-1.099,-5.127
0.427,0.220,0.864,-1.587,-2.625,-1.465
0.434,0.233,0.917,6.165,-2.136,10.559
0.370,0.145,1.026,11.719,-0.610,25.146
0.329,0.057,1.006,8.789,0.610,34.668
0.313,0.000,0.970,3.784,0.549,39.124
0.271,-0.070,0.930,0.610,-1.160,40.100
0.216,-0.115,0.947,0.793,-3.357,38.025
0.129,-0.114,0.962,2.136,-4.456,34.424
0.157,-0.165,1.013,6.348,0.488,31.494
0.124,-0.138,0.994,6.897,3.418,28.015
0.100,-0.138,0.982,3.784,0.793,23.743
0.076,-0.139,1.001,3.479,-0.732,20.386
0.092,-0.019,0.984,1.526,-2.869,16.541
0.121,0.107,0.927,1.282,-3.418,16.602
0.165,0.147,0.938,3.601,-0.244,23.132
0.127,0.079,1.001,7.751,1.831,32.715
0.086,0.018,0.991,6.653,-0.610,37.781
0.072,-0.043,0.970,6.165,0.000,39.734
0.054,-0.088,0.980,6.836,-0.366,39.124
0.043,-0.139,0.967,7.080,-1.282,35.583
-0.004,-0.198,1.001,7.141,-2.502,29.907
-0.028,-0.225,1.002,6.653,-2.686,22.583
-0.025,-0.171,0.986,5.127,-2.075,14.893
-0.004,-0.104,1.001,3.296,-2.502,8.789
0.015,-0.053,0.988,1.648,-3.174,5.737
0.011,-0.002,0.947,1.038,-3.845,4.883
0.012,0.020,0.969,2.319,-4.395,5.676
0.021,0.048,0.977,3.723,-3.662,7.629
0.038,0.072,0.979,4.150,-2.991,9.644
0.045,0.046,0.996,4.395,-2.075,12.268
0.010,-0.042,0.970,3.967,-1.343,13.611
-0.033,-0.069,0.992,4.333,-0.610,12.085
-0.039,-0.046,1.001,3.235,-0.488,8.423
-0.040,-0.016,0.989,2.136,-0.488,5.371
-0.024,0.010,0.975,2.075,-0.305,4.272
-0.024,-0.012,0.961,2.380,-1.343,4.578
-0.075,-0.047,0.975,3.479,-2.930,4.700
-0.073,-0.040,1.021,3.662,-2.502,3.723
-0.039,-0.030,1.000,1.465,-3.540,1.953
-0.058,-0.002,0.980,-0.488,-4.272,0.122
-0.032,0.020,0.994,-0.916,-1.892,0.000
-0.012,0.046,0.981,-1.160,0.427,0.916
-0.022,0.021,0.952,-1.038,2.075,2.258
-0.047,-0.010,0.956,1.038,2.808,3.296
-0.071,-0.022,0.972,3.235,2.563,2.563
-0.064,0.016,0.956,4.578,1.282,1.221
-0.054,0.014,0.944,6.531,0.488,1.709
-0.081,-0.022,0.978,8.606,-1.099,3.784
-0.095,-0.067,1.030,9.094,-0.366,5.127
-0.090,-0.070,1.013,5.981,-0.610,3.662
-0.039,-0.049,0.970,4.456,1.221,1.038
-0.050,-0.008,0.993,4.700,1.831,-0.488
-0.066,0.030,1.005,4.333,2.380,0.122
-0.083,0.025,0.991,3.601,2.197,1.160
-0.087,0.031,0.974,3.296,1.648,2.380
-0.108,0.001,0.974,3.662,0.061,3.052
-0.125,-0.019,0.976,4.578,-0.244,3.052
-0.102,-0.047,1.000,4.639,0.244,1.709
-0.115,-0.052,1.001,4.761,0.244,0.000
-0.092,-0.003,0.980,3.784,0.122,-2.441
-0.082,0.044,0.974,3.601,0.122,-2.563
-0.096,0.041,0.969,4.822,-0.122,-1.160
-0.105,0.023,0.976,7.080,1.465,1.160
-0.124,-0.019,1.014,8.423,1.953,3.113
-0.148,0.016,0.992,7.263,2.319,3.662
-0.154,-0.014,1.011,5.676,3.723,2.808
-0.154,-0.014,0.981,4.639,2.319,2.563
-0.173,-0.051,0.964,4.272,0.610,1.709
-0.173,-0.071,0.999,6.226,0.854,0.244
-0.166,-0.014,1.012,5.554,-0.793,-1.953
-0.141,0.012,0.995,4.456,-0.183,-2.014
-0.130,0.015,0.966,3.723,0.549,0.427
-0.154,-0.013,0.989,4.883,0.183,3.967
-0.153,-0.038,0.995,5.493,0.488,6.042
-0.144,-0.054,0.995,5.127,0.549,6.775
-0.168,-0.084,0.984,4.700,0.671,6.470
-0.165,-0.101,0.987,5.127,0.488,5.066
-0.186,-0.066,1.015,4.883,-0.183,2.747
-0.157,-0.004,0.997,3.174,-0.549,1.282
-0.159,0.028,0.953,2.502,-1.404,3.174
-0.151,-0.024,0.966,4.456,-3.662,6.775
-0.185,-0.060,0.969,6.104,-6.226,11.169
-0.223,-0.121,0.995,7.874,-8.362,12.390
-0.214,-0.111,1.027,8.118,-7.019,10.193
-0.147,-0.076,1.006,5.249,-4.089,6.470
-0.130,-0.068,0.971,3.723,-3.357,5.066
-0.154,-0.058,0.979,3.418,-5.737,4.395
-0.172,-0.080,0.990,3.906,-7.629,3.784
-0.182,-0.080,0.980,4.150,-8.179,2.991
-0.170,-0.052,0.970,4.822,-10.010,2.197
-0.143,-0.058,0.976,6.958,-12.024,2.258
-0.153,-0.047,0.991,8.240,-14.160,4.028
-0.140,-0.076,1.004,7.935,-15.625,5.554
-0.163,-0.098,0.988,7.385,-12.939,6.104
-0.175,-0.098,0.984,6.226,-8.728,2.625
-0.156,-0.092,0.969,5.127,-4.272,-1.404

-0.021,-0.036,1.001,2.380,1.770,0.061
-0.017,-0.023,1.004,0.000,3.052,-1.160
-0.085,-0.021,0.997,-2.258,2.869,-2.808
-0.126,-0.035,1.011,-4.517,1.404,-8.545
0.124,-0.184,1.298,-5.737,4.272,-15.015
0.349,-0.037,0.910,-13.184,-6.409,-14.587
-0.043,-0.007,0.864,-9.705,-14.526,-7.141
0.245,-0.141,1.010,0.671,3.723,-4.578
0.228,-0.124,0.958,1.221,4.028,-8.362
0.298,-0.136,0.981,1.709,4.822,-11.963
0.463,-0.054,0.960,2.014,7.751,-16.235
0.484,0.009,0.979,1.709,5.615,-17.212
0.525,0.060,0.967,1.770,6.897,-15.137
0.566,0.095,0.941,1.709,7.019,-11.414
0.557,0.092,0.943,2.380,5.249,-5.615
0.500,0.016,0.965,3.601,4.578,0.244
0.491,-0.012,0.952,3.906,4.639,3.235
0.506,-0.014,0.962,4.028,5.981,4.578
0.518,-0.016,1.004,4.333,5.554,6.287
0.508,0.030,0.945,2.686,1.709,7.080
0.492,0.061,0.953,3.052,4.395,10.315
0.427,0.044,0.958,4.883,6.348,14.465
0.363,0.047,0.947,5.432,4.150,15.503
0.309,0.018,0.937,7.507,2.502,15.747
0.260,0.012,0.956,7.690,-0.488,14.893
0.169,-0.046,0.961,6.409,-4.028,13.489
0.158,-0.118,1.018,4.944,-4.211,12.268
0.081,-0.117,0.940,3.357,-7.141,10.376
0.047,-0.138,0.985,2.441,-3.967,10.010
0.059,-0.061,1.024,0.854,-2.686,7.751
0.081,0.144,0.952,-1.831,-7.385,7.019
0.076,0.110,1.012,3.418,-2.014,15.991
0.041,0.040,0.991,4.822,0.916,24.536
-0.006,-0.037,0.993,4.456,2.502,29.053
-0.174,-0.141,1.019,3.967,5.005,29.419
-0.034,-0.238,1.071,3.967,6.226,22.888
-0.082,-0.192,0.900,2.075,-4.883,11.230
0.006,-0.131,0.908,4.639,2.686,8.789
-0.031,-0.168,1.034,9.644,6.714,12.146
-0.013,-0.163,1.024,10.315,-1.160,8.911
0.030,-0.071,1.005,10.376,-6.531,4.883
0.120,0.110,0.988,12.573,-8.362,5.493
0.130,0.234,0.971,17.273,-6.592,12.512
0.162,0.238,0.989,19.226,-2.747,20.874
0.240,0.220,1.006,17.883,-0.732,27.893
0.194,0.199,0.975,13.184,-6.836,34.973
0.105,0.115,0.918,9.277,-8.118,40.894
0.094,0.005,0.916,9.216,-0.732,43.152
0.073,-0.086,0.948,9.766,2.014,40.527
0.087,-0.120,0.953,8.362,-4.395,33.569
0.065,-0.128,0.931,6.042,-12.268,26.123
0.043,-0.136,0.953,6.714,-13.306,21.179
0.038,-0.136,1.012,7.446,-7.935,17.578
0.047,-0.078,1.040,4.883,-3.357,14.526
0.085,-0.017,0.991,2.014,-3.174,12.878
0.107,0.043,0.947,-0.549,-5.920,13.977
0.112,0.114,0.938,-2.991,-7.141,17.395
0.117,0.085,0.960,-4.883,-4.150,23.987
0.022,-0.027,1.026,-6.104,1.038,30.518
0.010,-0.076,1.029,-7.385,3.723,31.494
0.001,-0.084,1.045,-5.920,-1.099,28.625
-0.027,-0.084,1.038,-1.831,-5.920,26.611
-0.033,-0.082,1.013,0.305,-7.446,23.865
-0.045,-0.085,1.021,0.854,-5.310,20.996
-0.053,-0.097,1.020,-0.122,-3.174,17.822
-0.065,-0.094,1.009,-0.244,-2.136,14.038
-0.052,-0.044,0.974,0.977,-3.296,10.254
-0.033,0.033,0.951,0.122,-5.737,7.568
-0.036,0.105,0.925,-2.014,-4.517,10.559
-0.068,0.103,0.911,-4.761,1.221,17.273
-0.118,0.041,0.925,-5.554,11.475,24.719
-0.186,-0.053,0.964,-4.272,22.949,30.029
-0.215,-0.101,0.981,-5.920,33.081,29.785
-0.210,-0.102,0.999,-7.812,37.903,25.940
-0.192,-0.087,1.002,-7.202,36.194,21.729
-0.198,-0.079,0.991,-5.371,29.846,18.738
-0.181,-0.069,0.970,-2.808,23.071,16.418
-0.196,-0.075,0.977,1.404,18.372,15.076
-0.166,-0.077,0.961,5.676,16.602,13.794
-0.130,-0.051,0.968,8.301,13.550,12.085
-0.121,-0.033,0.982,9.460,10.437,12.085
-0.103,-0.044,1.009,9.338,7.385,13.306
-0.124,-0.042,0.968,6.714,1.343,14.343
-0.167,-0.074,0.970,3.601,-1.038,15.076
-0.191,-0.076,0.995,2.014,-0.122,14.160
-0.185,-0.014,0.981,2.808,-2.441,12.207
-0.175,0.025,0.987,6.287,-4.578,12.268
-0.155,-0.007,0.967,11.841,-4.089,15.198
-0.173,-0.096,0.938,16.174,-4.456,17.639
-0.219,-0.166,0.947,19.165,-4.578,17.395
-0.240,-0.178,0.982,20.020,-4.028,13.489
-0.222,-0.140,1.018,17.883,-5.554,8.179
-0.202,-0.054,1.025,13.855,-8.362,4.456
-0.174,0.028,0.960,8.911,-9.705,3.967
-0.119,0.051,0.965,3.174,-5.859,6.958
-0.098,0.011,1.000,-0.854,-2.869,12.085
-0.126,-0.081,1.009,-2.380,-4.395,15.259
-0.175,-0.129,1.045,-1.526,-4.700,15.259
-0.138,-0.106,1.054,-0.305,-3.479,11.597
-0.113,-0.016,1.007,0.000,-4.578,9.216
-0.105,0.025,0.979,0.366,-5.798,10.254
-0.092,0.035,0.935,-0.549,-5.432,12.878
-0.118,-0.014,0.920,-1.648,-6.714,15.198
-0.166,-0.064,0.955,-0.183,-9.460,15.686
-0.186,-0.073,0.992,2.014,-12.756,13.367
-0.194,-0.008,1.036,3.723,-15.137,9.521
-0.203,0.022,1.072,9.094,-15.991,8.118
-0.145,0.029,1.005,14.343,-14.648,9.033
-0.174,-0.018,1.000,11.536,-17.151,9.705
-0.190,-0.083,0.985,9.827,-15.625,11.230
-0.214,-0.107,1.015,7.812,-11.414,11.719
-0.216,-0.082,1.015,6.042,-9.521,9.949
-0.173,-0.015,0.976,4.211,-10.315,7.568
-0.144,0.037,0.968,3.418,-11.658,7.629
-0.139,0.014,0.985,4.578,-11.597,10.559
-0.142,-0.026,0.997,5.005,-10.681,13.306
-0.161,-0.069,0.986,4.822,-10.620,14.038
-0.173,-0.103,0.986,4.700,-9.705,13.184
-0.173,-0.112,0.986,4.578,-7.263,11.047

0.015,-0.021,1.007,1.587,1.526,-0.305
0.042,-0.026,1.016,0.061,1.038,-2.930
0.068,-0.044,1.020,-3.174,1.526,-4.700
0.110,-0.011,0.962,-5.798,0.671,-5.249
0.239,-0.036,1.110,-4.883,-0.244,-3.052
0.410,-0.091,0.937,-11.597,-11.780,-2.502
0.164,-0.017,0.864,-6.958,-16.846,-0.549
0.448,-0.028,0.953,-1.526,2.380,-2.258
0.480,-0.008,0.995,1.953,9.827,-3.052
0.489,0.063,0.948,1.282,4.700,-3.845
0.583,0.115,0.976,2.258,9.888,-3.174
0.583,0.123,0.956,2.380,9.766,-0.183
0.599,0.128,0.972,2.380,9.399,4.578
0.596,0.107,0.969,2.930,9.827,9.827
0.572,0.066,0.974,2.991,8.850,14.893
0.521,0.043,0.951,2.197,6.165,18.494
0.498,0.006,0.967,2.380,6.531,21.423
0.478,-0.015,0.946,2.930,6.897,22.827
0.440,-0.065,0.964,3.845,5.188,22.888
0.393,-0.129,0.954,4.639,3.540,21.667
0.326,-0.174,0.960,3.845,0.854,18.127
0.273,-0.181,0.939,2.808,-1.648,12.634
0.269,-0.104,0.954,2.930,-2.930,7.629
0.272,0.016,0.977,4.272,-4.211,6.531
0.233,0.046,0.987,5.310,-5.432,10.315
0.225,0.074,0.971,4.456,-4.089,16.113
0.153,-0.006,1.001,5.493,-3.174,22.705
0.085,-0.072,0.999,5.676,-3.601,27.588
0.054,-0.133,0.935,3.784,-0.061,28.809
0.050,-0.155,0.991,-0.610,5.493,26.917
-0.038,-0.184,1.016,-0.732,2.197,25.146
-0.028,-0.183,0.994,1.038,1.953,21.484
-0.030,-0.093,0.963,1.709,1.221,17.090
0.036,0.050,0.967,2.197,0.793,15.991
0.057,0.164,0.976,3.296,-1.465,20.874
0.012,0.146,0.979,4.517,-1.526,31.067
-0.050,0.047,0.990,4.883,-0.854,41.748
-0.110,-0.078,0.985,4.883,-1.526,48.401
-0.189,-0.205,0.996,4.822,-2.258,49.377
-0.225,-0.267,1.005,3.540,-1.404,44.678
-0.239,-0.278,1.023,2.075,0.244,36.438
-0.193,-0.248,1.037,0.122,3.235,27.222
-0.182,-0.175,0.989,-2.808,4.578,19.775
-0.148,-0.139,1.029,-3.723,8.118,14.587
-0.064,-0.026,1.020,-4.700,6.958,10.681
-0.041,0.100,0.957,-6.897,3.723,10.803
0.049,0.094,1.028,-4.822,8.911,15.259
0.050,0.108,1.028,-5.493,7.141,19.836
0.061,0.055,1.046,-7.690,6.592,24.597
0.042,-0.001,1.025,-10.437,6.165,26.855
0.046,-0.020,0.981,-13.550,4.028,26.001
0.025,-0.016,0.916,-13.428,1.892,24.231
0.037,-0.022,0.884,-9.521,3.723,22.156
0.037,-0.010,0.878,-4.456,3.967,19.714
0.044,0.005,0.909,2.075,4.211,18.311
0.062,0.019,0.951,8.057,4.028,17.883
0.080,0.065,0.964,11.475,-0.671,17.090
0.085,0.094,0.936,13.184,-7.568,16.907
0.120,0.137,0.859,13.306,-10.864,16.724
0.136,0.126,0.814,12.878,-7.874,19.897
0.093,0.063,0.839,12.329,-3.296,24.231
0.062,0.011,0.871,8.545,1.343,26.062
0.026,0.020,0.916,3.296,3.479,24.292
0.100,0.047,1.114,4.578,-3.418,21.973
-0.122,0.017,0.983,13.672,-25.452,22.034
-0.013,0.053,0.938,18.677,-23.132,19.470
-0.066,-0.005,1.071,28.564,-21.057,20.325
-0.054,-0.037,1.062,33.875,-24.048,20.630
-0.135,-0.044,1.135,29.724,-27.893,19.287
-0.148,-0.030,1.139,18.677,-20.264,19.897
-0.130,0.032,1.007,1.770,-6.592,21.423
-0.178,0.016,1.021,-3.052,3.540,25.940
-0.166,-0.001,1.068,-4.456,10.742,28.625
-0.139,-0.011,1.052,-8.545,10.132,27.710
-0.151,0.005,1.004,-12.939,4.883,26.062
-0.128,-0.002,0.954,-12.939,2.319,25.574
-0.118,0.029,0.916,-8.789,1.160,25.757
-0.086,0.036,0.905,-1.099,-1.465,26.855
-0.109,-0.011,0.910,7.019,-3.601,28.931
-0.149,-0.048,0.915,12.512,-5.676,29.846
-0.174,-0.076,0.931,15.564,-7.080,28.320
-0.202,-0.096,0.948,14.465,-7.263,25.940
-0.205,-0.079,0.948,10.010,-6.226,22.461
-0.237,-0.072,0.979,7.080,-4.700,20.508
-0.262,-0.081,1.033,8.911,-1.221,20.691
-0.237,-0.118,1.043,13.000,0.122,19.897
-0.263,-0.066,1.034,12.268,-3.235,17.700
-0.259,-0.038,1.031,9.338,-3.967,16.724
-0.247,-0.042,1.025,5.737,-1.709,16.907
-0.248,-0.052,1.000,1.831,-1.709,17.456
-0.279,-0.065,0.984,-0.366,-2.258,17.700
-0.294,-0.073,0.967,-0.366,-0.671,18.311
-0.277,-0.060,0.926,0.916,-0.061,18.677
-0.265,-0.048,0.897,2.808,-2.014,19.348
-0.286,-0.080,0.932,8.057,-3.113,21.301
-0.311,-0.123,0.976,14.099,-3.723,22.278
-0.332,-0.167,1.023,17.029,-7.019,20.691
-0.359,-0.177,1.090,14.099,-11.780,16.418
-0.291,-0.086,1.032,6.165,-14.526,10.742
-0.260,-0.092,0.982,7.385,-21.790,9.705
-0.317,-0.088,0.959,8.911,-31.067,9.521
-0.335,-0.096,0.947,6.775,-33.508,8.545
-0.388,-0.127,1.002,5.310,-28.076,7.874
-0.338,-0.114,0.999,4.333,-19.226,6.409
-0.299,-0.061,0.964,3.235,-17.456,4.517
-0.277,-0.016,0.940,3.174,-17.456,4.700
-0.263,-0.016,0.952,3.479,-14.465,6.592
-0.264,-0.054,0.968,3.723,-10.864,8.606
-0.277,-0.097,0.972,3.967,-9.094,9.155
-0.280,-0.105,0.965,4.150,-7.385,8.057
-0.265,-0.090,0.966,4.211,-4.639,5.920
-0.226,-0.054,0.969,3.967,-1.953,4.211
-0.187,-0.033,0.973,3.662,0.427,3.845
-0.169,-0.031,0.979,3.967,1.465,4.150
-0.126,-0.030,0.977,3.906,2.502,3.601
-0.083,-0.014,0.977,2.930,5.676,2.991
-0.045,-0.021,1.006,2.197,9.216,3.113
-0.037,0.010,1.005,1.831,7.874,2.808
-0.052,0.014,0.951,2.136,3.723,3.174

0.007,-0.039,1.005,2.014,-0.671,1.648
0.027,-0.027,1.037,-0.427,-2.502,0.671
0.009,-0.002,1.012,-3.662,-5.859,-0.427
0.052,0.102,1.035,-5.127,-6.897,-2.136
0.494,-0.073,0.785,-9.766,-7.690,-4.150
0.136,0.060,0.905,-10.803,-20.935,0.854
0.370,-0.045,0.964,1.770,-1.709,7.080
0.466,-0.026,0.972,3.479,3.540,7.751
0.603,-0.089,0.950,4.211,4.700,9.705
0.696,-0.204,0.962,6.226,6.531,13.489
0.766,-0.211,0.950,6.775,7.324,13.794
0.754,-0.171,0.950,7.202,8.789,13.489
0.732,-0.073,0.944,7.385,8.057,12.390
0.699,0.003,0.939,6.836,6.348,11.841
0.685,-0.015,0.945,6.958,4.639,13.855
0.628,-0.056,0.949,6.714,2.258,15.991
0.573,-0.060,0.968,5.920,0.916,16.174
0.546,-0.095,0.966,5.127,2.502,14.343
0.447,-0.034,0.930,4.150,0.366,13.245
0.448,0.079,0.973,2.991,0.061,15.137
0.349,0.040,0.980,2.441,-0.549,22.217
0.235,-0.040,0.949,2.930,-0.854,28.809
0.155,-0.032,0.989,2.625,-1.282,31.677
0.093,-0.028,0.989,2.014,-2.747,32.776
0.036,-0.061,0.989,1.892,-2.380,33.997
-0.020,-0.047,0.967,0.977,-2.136,33.325
-0.051,-0.105,1.017,2.380,-1.526,31.494
-0.148,-0.093,0.949,2.808,-3.906,28.320
-0.062,0.058,0.988,-0.488,0.427,25.818
-0.060,0.083,0.990,-1.099,1.282,28.381
-0.133,-0.014,1.002,1.709,-2.563,34.790
-0.152,-0.127,1.000,4.517,-1.892,37.720
-0.107,-0.176,0.975,5.798,-0.793,37.231
-0.119,-0.134,0.982,4.211,-1.465,36.377
-0.125,-0.116,0.988,4.211,-2.136,36.865
-0.106,-0.154,0.970,6.470,-0.854,37.842
-0.139,-0.200,0.993,6.775,-1.404,36.865
-0.119,-0.152,1.010,5.493,-0.854,33.081
0.006,-0.120,0.962,5.188,1.404,29.480
0.038,-0.090,0.990,3.784,0.305,26.855
0.049,-0.065,0.991,3.113,0.427,24.841
0.134,-0.040,0.981,3.174,2.136,21.057
0.150,-0.074,0.983,3.662,2.747,21.301
0.100,-0.121,0.988,1.831,2.747,22.034
0.098,-0.015,1.024,-0.244,10.498,19.897
0.241,-0.185,0.940,3.662,10.498,19.897
0.082,0.129,0.931,0.427,-13.306,17.822
0.207,0.090,0.967,4.089,-1.709,25.574
0.266,0.005,1.027,9.644,6.592,32.227
0.247,-0.024,0.985,7.446,5.005,35.095
0.233,-0.074,0.975,4.028,3.845,34.790
0.193,-0.057,0.968,1.099,0.916,32.471
0.152,-0.001,0.972,-0.793,-3.174,29.968
0.180,0.029,0.973,-0.732,-6.104,29.663
0.138,0.014,0.944,-0.183,-11.719,31.372
0.062,-0.010,0.911,-0.122,-14.038,32.898
0.067,0.010,0.924,-0.671,-7.507,33.508
0.048,-0.025,0.968,-0.122,-3.052,34.546
-0.055,-0.115,1.028,1.831,-2.319,34.485
0.003,-0.123,1.003,2.075,0.305,31.189
0.050,-0.060,0.986,-1.343,-2.197,27.100
0.042,-0.025,0.968,-2.930,-8.911,25.391
0.025,0.038,0.943,-1.709,-9.155,25.757
0.035,0.066,0.996,3.235,-2.136,28.137
0.041,0.048,1.052,7.996,2.380,31.921
-0.009,-0.004,1.043,6.897,0.244,35.461
-0.058,-0.032,0.981,5.066,-3.723,36.560
-0.084,0.019,0.919,3.662,-6.897,36.499
-0.082,0.038,0.866,5.432,-7.446,37.476
-0.111,0.019,0.881,7.507,-3.235,39.490
-0.165,-0.068,1.003,8.423,4.333,41.382
-0.174,-0.099,1.162,5.981,12.939,41.687
-0.154,-0.070,1.167,2.197,12.634,40.588
-0.129,-0.000,1.094,-0.549,3.906,39.856
-0.143,-0.034,1.004,1.221,-4.089,40.894
-0.191,-0.039,0.964,7.019,-9.460,40.955
-0.211,-0.069,0.945,14.709,-12.817,40.833
-0.242,-0.078,0.944,20.142,-13.733,39.185
-0.258,-0.027,0.920,20.691,-14.160,36.743
-0.276,0.001,0.923,16.846,-12.390,35.828
-0.286,-0.037,0.938,12.634,-7.935,36.377
-0.255,-0.032,0.937,7.812,-11.047,36.316
-0.316,-0.011,0.907,4.578,-19.287,35.950
-0.341,-0.061,0.906,4.272,-14.343,37.292
-0.331,-0.153,0.864,4.883,-4.883,37.048
-0.319,-0.150,0.817,8.728,1.160,34.729
-0.354,-0.108,0.932,17.456,1.587,31.433
-0.362,-0.052,1.066,28.564,-0.916,28.198
-0.536,-0.266,1.494,39.429,-8.728,26.245
-0.410,-0.007,1.322,23.071,-9.338,20.569
-0.163,0.126,0.995,23.254,-6.897,21.362
-0.257,-0.133,0.892,33.142,-19.165,30.151
-0.346,-0.191,0.878,25.208,-21.912,31.738
-0.377,-0.019,0.847,8.972,-13.367,24.475
-0.315,-0.019,0.914,1.587,5.432,22.217
-0.318,-0.043,0.970,2.991,13.611,22.034
-0.340,-0.026,0.996,6.226,7.324,19.165
-0.354,-0.078,1.020,12.329,0.549,16.663
-0.349,-0.123,1.002,14.709,-4.089,13.794
-0.363,-0.170,1.000,14.282,-8.362,10.315
-0.355,-0.176,1.009,14.160,-9.644,6.348
-0.305,-0.086,1.012,14.038,-10.986,2.930
-0.224,-0.086,0.995,13.062,-13.062,2.197
-0.242,-0.138,0.953,10.803,-15.259,2.686
-0.263,-0.102,0.955,6.104,-14.587,1.160
-0.207,-0.061,0.963,3.601,-7.996,0.000
-0.186,-0.077,0.950,1.343,-4.517,0.061
-0.212,-0.097,0.951,-2.563,-4.822,-0.305
-0.202,-0.088,0.968,-4.333,-2.991,-1.709
-0.161,-0.049,0.980,-5.310,-0.244,-3.357
-0.119,-0.054,0.985,-5.127,0.854,-3.601
-0.094,-0.083,0.935,-6.042,-1.160,-3.235
-0.137,-0.077,0.934,-9.521,-2.563,-3.418
-0.148,-0.054,0.984,-11.292,1.465,-3.662
-0.136,-0.032,0.979,-11.047,6.348,-3.357
-0.084,-0.022,0.990,-8.850,10.925,-2.930
-0.058,-0.052,0.974,-7.751,8.240,-1.526
-0.099,-0.045,0.970,-10.559,2.441,-0.732
-0.108,-0.014,1.000,-12.085,1.648,-0.244

0.030,-0.048,1.002,2.136,-2.319,1.587
0.064,-0.065,1.013,0.244,-2.502,0.793
0.152,-0.085,1.028,-2.747,-3.296,-1.526
0.326,-0.034,0.953,-7.446,-4.700,-6.348
0.323,-0.111,1.247,-8.667,-5.981,-9.460
0.662,0.032,0.654,-17.517,-15.930,-14.221
0.407,0.039,0.998,-3.784,-5.920,-6.897
0.609,-0.050,0.940,3.296,7.141,-6.287
0.609,-0.002,0.936,3.662,8.545,-10.437
0.698,0.026,0.928,4.944,7.141,-12.512
0.729,0.074,0.937,6.165,5.310,-12.512
0.767,0.078,0.963,6.897,4.822,-11.047
0.752,0.030,1.014,9.216,5.737,-8.789
0.717,-0.091,1.183,12.085,6.042,-7.935
0.625,-0.096,1.124,11.780,3.662,-11.047
0.712,-0.010,1.003,8.728,10.986,-14.038
0.786,0.105,1.046,1.038,17.334,-13.184
0.651,0.249,0.965,-9.766,3.845,-7.996
0.574,0.328,0.847,-10.681,0.061,1.099
0.561,0.283,0.879,-0.671,12.573,12.939
0.472,0.195,0.981,11.597,15.625,22.705
0.380,0.094,1.113,21.179,8.728,27.771
0.304,-0.001,1.126,27.588,0.244,29.358
0.246,-0.100,1.073,28.809,-8.911,28.564
0.143,-0.179,0.982,20.386,-17.822,25.024
0.051,-0.257,0.907,7.690,-17.090,19.775
0.001,-0.271,0.877,-6.287,-9.094,12.634
-0.038,-0.223,0.864,-18.250,-2.991,6.104
-0.012,-0.083,0.819,-24.231,2.258,2.197
0.030,0.050,0.774,-20.996,6.226,3.845
0.045,0.094,0.785,-11.536,9.949,10.559
-0.057,0.036,0.811,0.122,13.855,19.653
0.070,-0.016,0.922,8.179,19.897,25.940
-0.047,-0.109,0.976,10.681,10.132,29.480
-0.109,-0.198,0.944,9.033,3.601,28.687
-0.154,-0.303,0.952,5.310,9.644,24.109
-0.170,-0.295,0.975,-1.404,16.113,15.991
-0.055,-0.244,1.070,-7.996,16.418,8.301
-0.190,-0.265,1.114,-11.230,5.920,3.113
-0.092,-0.212,1.001,-11.353,1.770,-3.174
-0.037,-0.050,0.942,-5.432,2.441,-7.324
0.043,0.139,0.804,0.977,-2.197,-6.042
0.115,0.203,0.832,6.226,2.319,2.930
0.057,0.079,0.901,10.193,6.470,15.137
0.011,-0.025,0.949,6.531,10.071,21.729
-0.004,-0.073,1.000,0.977,15.930,21.912
0.007,-0.075,1.031,-2.502,19.348,18.921
0.040,-0.056,1.037,-4.272,17.334,15.259
0.053,-0.063,1.029,-2.930,11.658,12.573
0.030,-0.113,1.041,1.831,5.188,10.254
0.027,-0.104,1.036,7.141,-1.526,6.836
0.064,0.017,0.989,10.315,-8.240,3.601
0.095,0.100,0.938,13.916,-13.550,5.310
0.087,0.116,0.928,17.578,-15.442,11.780
0.063,0.081,0.911,16.907,-14.221,18.982
0.035,0.024,0.894,10.559,-8.362,24.902
0.018,-0.010,0.890,2.686,-0.977,28.870
0.019,-0.042,0.906,-2.747,6.775,30.518
-0.008,-0.117,0.956,-2.869,12.268,30.701
-0.022,-0.150,0.988,-0.366,12.939,27.893
-0.053,-0.130,1.000,4.456,8.545,23.743
-0.069,-0.097,1.006,13.794,2.380,20.142
-0.087,-0.052,1.025,23.621,-3.357,17.700
-0.059,-0.004,1.031,31.006,-9.338,16.602
-0.055,0.016,1.056,32.043,-13.306,17.578
-0.043,0.049,1.020,24.841,-13.550,20.020
-0.037,0.107,0.957,13.184,-11.841,23.926
-0.065,0.036,0.930,5.798,-7.751,29.236
-0.115,-0.057,0.921,3.113,-2.319,32.288
-0.143,-0.088,0.905,2.380,1.160,31.128
-0.138,-0.075,0.886,5.371,2.136,28.503
-0.130,-0.087,0.918,11.719,2.258,25.757
-0.144,-0.106,0.996,17.944,2.075,23.254
-0.101,-0.140,1.294,19.714,0.183,20.264
-0.258,-0.052,1.198,14.221,-17.883,15.747
-0.202,-0.043,1.169,17.578,-18.921,14.832
-0.172,-0.052,1.104,24.170,-15.015,15.198
-0.177,-0.014,1.062,26.428,-22.644,15.076
-0.169,0.016,1.008,23.376,-28.259,15.930
-0.175,-0.002,0.933,17.639,-28.381,18.494
-0.180,-0.065,0.894,12.207,-22.949,20.691
-0.209,-0.115,0.916,10.315,-17.212,21.057
-0.203,-0.123,0.940,11.536,-11.292,19.470
-0.205,-0.084,0.991,14.526,-9.277,17.700
-0.193,-0.068,1.048,16.479,-10.010,16.968
-0.198,-0.099,1.042,15.320,-13.062,16.907
-0.231,-0.129,0.972,12.817,-18.066,15.930
-0.231,-0.141,0.882,13.428,-20.447,13.977
-0.234,-0.140,0.844,19.165,-20.264,11.536
-0.226,-0.103,0.858,24.048,-18.799,9.155
-0.209,-0.067,0.914,25.085,-15.015,7.446
-0.208,-0.088,0.956,22.034,-11.414,7.080
-0.252,-0.132,1.002,15.137,-9.888,7.324
-0.276,-0.158,1.068,5.798,-6.226,5.859
-0.268,-0.121,1.129,-4.333,-3.174,2.747
-0.266,-0.120,1.140,-6.165,-6.836,2.258
-0.280,-0.149,1.121,-2.625,-15.015,2.502
-0.278,-0.162,1.052,-0.305,-21.851,0.977
-0.277,-0.167,1.018,2.991,-25.085,-1.099
-0.226,-0.126,0.995,5.615,-24.719,-2.869
-0.197,-0.111,0.966,7.324,-24.292,-4.150
-0.201,-0.085,0.920,7.507,-23.560,-5.371
-0.205,-0.069,0.875,5.981,-20.874,-4.517
-0.214,-0.047,0.861,3.418,-16.235,-3.296
-0.207,-0.023,0.865,0.000,-10.010,-1.587
-0.204,-0.017,0.903,-2.991,-4.456,1.221
-0.212,-0.113,0.979,-5.737,-0.183,4.395
-0.239,-0.189,1.037,-8.301,4.028,4.333
-0.222,-0.143,1.052,-8.972,5.188,-0.244
-0.180,-0.094,1.039,-6.042,2.441,-3.113
-0.178,-0.111,1.014,0.122,-2.380,-3.296
-0.169,-0.105,0.979,3.540,-5.554,-3.235
-0.158,-0.088,0.964,5.432,-5.737,-3.357
-0.145,-0.072,0.947,6.226,-4.517,-3.296
-0.134,-0.047,0.928,4.578,-4.211,-2.869
-0.127,-0.068,0.919,1.831,-3.235,-1.526
-0.151,-0.071,0.926,-2.075,-0.488,-1.160
-0.127,-0.064,0.956,-4.517,5.432,-0.305
-0.100,-0.071,0.993,-4.211,10.986,0.793

0.005,-0.014,1.015,-0.488,-5.249,3.174
-0.020,0.066,1.022,-4.150,-7.202,1.465
0.041,0.118,0.891,-6.958,-8.362,0.610
-0.061,-0.149,1.023,-7.019,-11.353,0.183
0.089,0.054,0.799,-11.047,-20.935,-13.855
0.385,-0.092,1.018,1.526,8.301,-7.996
0.325,-0.020,0.988,-0.305,6.653,-15.503
0.321,-0.063,0.993,0.732,10.925,-18.616
0.397,-0.017,0.985,1.526,11.475,-20.081
0.446,0.043,0.975,3.845,15.015,-17.883
0.447,0.028,0.978,5.310,17.944,-13.611
0.403,-0.027,0.971,6.836,18.921,-8.301
0.338,-0.102,0.964,6.897,15.198,-8.179
0.314,-0.074,0.932,7.385,10.315,-12.695
0.355,-0.011,0.930,9.033,5.127,-17.761
0.412,0.068,0.996,10.803,0.671,-17.700
0.426,0.094,1.011,10.132,-0.244,-11.780
0.389,0.011,0.973,10.925,3.601,-2.258
0.277,-0.080,1.005,11.658,4.028,5.432
0.225,-0.125,0.994,14.648,2.136,8.545
0.241,-0.130,0.926,18.799,3.174,7.629
0.209,-0.103,0.956,20.142,0.122,5.005
0.171,-0.075,1.002,19.470,-3.418,1.709
0.163,-0.092,1.003,20.325,-3.174,1.038
0.158,-0.078,0.945,20.264,-2.014,0.732
0.225,-0.036,0.883,14.893,1.099,-0.610
0.244,0.009,0.927,4.517,3.357,1.160
0.169,-0.095,1.002,-3.845,1.343,5.554
0.136,-0.160,0.968,-6.836,3.357,10.376
0.076,-0.167,0.979,-5.066,4.944,12.451
0.006,-0.164,1.002,-1.465,1.038,7.751
-0.006,-0.156,0.986,4.272,-0.732,1.526
0.029,-0.101,0.970,10.437,-2.625,-3.418
0.053,-0.100,0.998,16.602,-5.127,-5.554
0.062,-0.049,0.953,15.198,-7.446,-6.897
0.158,0.018,0.922,8.911,-5.249,-5.493
0.159,-0.014,0.958,4.211,-5.310,-1.099
0.083,-0.022,0.981,-1.648,-6.226,3.357
0.120,0.027,0.992,-6.470,0.366,5.798
0.144,0.031,0.996,-7.202,4.272,8.301
0.077,-0.016,1.017,-3.967,3.540,12.390
0.088,-0.068,1.012,-1.526,5.554,14.221
0.063,-0.121,0.991,0.977,5.737,14.099
0.046,-0.131,0.982,0.488,6.287,11.353
0.057,-0.105,0.960,-2.441,6.775,5.676
0.135,0.048,0.943,-2.869,5.981,3.235
0.121,0.095,1.012,-0.061,7.629,7.446
0.165,0.049,1.044,6.042,5.371,14.221
0.085,-0.032,1.006,14.404,-4.395,20.508
0.041,-0.054,0.963,20.508,-9.827,22.339
0.065,-0.087,0.923,22.949,-9.766,20.447
0.088,-0.104,0.924,21.484,-6.653,18.372
0.058,-0.120,0.969,14.832,-3.357,16.357
0.056,-0.171,0.978,3.479,-0.610,12.024
0.030,-0.150,0.966,-5.615,0.366,7.324
0.111,0.078,0.849,-12.512,-0.061,3.845
0.199,0.239,0.860,-12.268,2.869,7.996
0.207,0.150,0.993,-6.470,2.380,18.738
0.088,0.044,1.012,-4.395,-6.897,28.564
0.020,-0.037,1.038,-4.333,-9.338,33.936
0.020,-0.039,1.001,-7.385,-3.845,33.813
0.010,-0.062,1.008,-9.827,-1.648,31.616
-0.026,-0.081,1.008,-10.193,-2.075,29.175
-0.046,-0.116,1.027,-9.216,-2.563,26.062
-0.070,-0.147,1.035,-8.911,-1.465,22.583
-0.129,-0.220,1.062,-7.935,-2.075,17.334
-0.122,-0.112,0.954,-6.653,-2.380,11.292
0.010,0.131,0.929,-4.822,2.747,10.132
0.070,0.159,0.997,1.221,6.348,18.677
-0.016,0.026,1.029,4.456,2.014,30.029
-0.109,-0.108,1.028,3.906,0.427,35.706
-0.161,-0.165,1.034,-2.563,2.380,33.203
-0.162,-0.138,1.053,-9.338,6.897,26.611
-0.131,-0.098,1.039,-12.268,8.911,21.240
-0.130,-0.104,1.023,-11.414,7.935,18.738
-0.107,-0.112,1.021,-8.057,6.531,17.395
-0.109,-0.052,1.009,-6.531,1.038,14.648
-0.097,0.005,0.983,-3.479,-3.967,12.695
-0.077,0.101,0.990,3.174,-8.850,14.893
-0.102,0.040,1.036,8.484,-11.902,20.447
-0.169,-0.032,1.059,9.277,-14.282,24.231
-0.165,-0.041,1.010,4.395,-18.799,23.560
-0.150,-0.040,0.911,-2.319,-21.973,21.973
-0.187,-0.079,0.827,-2.747,-24.963,21.606
-0.255,-0.159,0.813,4.028,-25.696,20.142
-0.283,-0.143,0.855,12.146,-20.813,16.907
-0.249,-0.055,0.920,15.137,-11.780,12.817
-0.192,0.026,0.964,13.428,-3.296,11.963
-0.177,0.026,0.961,9.949,-1.038,14.038
-0.185,0.062,0.925,7.080,-4.211,16.663
-0.202,0.040,0.862,7.141,-8.118,18.066
-0.236,-0.001,0.836,12.939,-12.695,20.325
-0.260,-0.068,0.871,19.592,-15.808,21.851
-0.296,-0.122,0.939,20.813,-13.184,20.020
-0.252,0.005,0.926,18.555,-10.193,15.564
-0.162,0.075,0.903,21.179,-14.893,12.024
-0.099,-0.015,0.971,30.212,-22.339,13.550
-0.190,-0.089,1.007,30.823,-25.635,19.226
-0.273,-0.109,1.008,21.851,-27.710,19.531
-0.495,-0.290,1.037,13.977,-27.527,14.771
-0.526,-0.222,1.473,13.672,-25.452,5.493
-0.135,0.158,1.136,-5.310,2.808,-0.671
